"success","trial_type","trial_index","time_elapsed","internal_node_id","rt","stimulus","key_press","task","correct","switch","rule","stimnum","prob_switch","correct_key","tasknum","practice","practice_accuracy","number_practice_combines","response","BDMquizgrade","task_displayed","slider_start","responses","question_order","TOT","overall","performance_by_block","points_list","value_list","offer_list","exp_version"
"true","fullscreen","0","85191","0.0-0.0","","","","","","","","","","","","","","","","","","","","","","","","","","",""
"","html-keyboard-response","1","132277","0.0-1.0-0.0-0.0","47082.28499998222","<p>In this experiment, you'll complete up to 12 short rounds of two tasks.</p><p>If you are 80% correct or better during one round of a task, then you pass that round and earn bonus points for it. If you are less than 80% correct, you will not earn any points for that round.</p><p>You can earn 1 to 5 points each round.</p><p>Keep in mind that you should be about 80% accurate for up to 12 rounds.</p><p>At the end of the experiment, the points you earned will be added up and turned into a bonus payment. $$ The more points you earn, the more money you will be paid. $$</p><p>If we can tell that you are not paying attention, then this experiment will end early and you will earn a smaller payment. $$</p><p>[Press space to continue.]</p>","32","instructions","","","","","","","","","","","","","","","","","","","","","","",""
"","html-keyboard-response","2","149011","0.0-1.0-1.0-0.0-0.0","16731.609999987995","<p>In this task, you will need to follow different rules depending on the color of the numbers on screen.</p><p style=""color: blue"">If the number is blue, you will need to respond to its magnitude (less than or greater than 5?).</p><p style=""color: green"">If the number is green, you will need to respond to its parity (even or odd?).</p><p>Let's practice responding to these rules, one at a time.</p><p>[Press the space bar to continue.]</p>","32","instructions","","","","","","","","","","","","","","","","","","","","","","",""
"","html-keyboard-response","3","159682","0.0-1.0-1.0-1.0-0.0-0.0","10668.440000008559","<p>On the next screen, please respond to the magnitude (less than or greater than 5?) of the numbers on screen.</p><p>Press <strong>S</strong> if the number is <5.</p><p>Press <strong>F</strong> if the number is >5.</p><p>[Press the space bar to continue.]</p>","32","instructions","","","","","","","","","","","","","","","","","","","","","","",""
"","categorize-html","4","160569","0.0-1.0-1.0-1.0-1.0-0.0","881.0999999986961","<p style=""color: blue"">3</p>","83","n-switch","true","false","1","2","0","83","-1","true","","","","","","","","","","","","","","",""
"","html-keyboard-response","5","161323","0.0-1.0-1.0-1.0-1.0-1.0","null","Correct!","null","feedback","","","","","","","","","","","","","","","","","","","","","","",""
"","categorize-html","6","162833","0.0-1.0-1.0-1.0-1.0-2.0","null","<p style=""color: blue"">6</p>","null","n-switch","false","false","1","4","0","70","-1","true","","","","","","","","","","","","","","",""
"","html-keyboard-response","7","163590","0.0-1.0-1.0-1.0-1.0-3.0","358.6549999890849","Please respond in time!","70","feedback","","","","","","","","","","","","","","","","","","","","","","",""
"","categorize-html","8","164360","0.0-1.0-1.0-1.0-1.0-4.0","765.7199999957811","<p style=""color: blue"">9</p>","70","n-switch","true","false","1","7","0","70","-1","true","","","","","","","","","","","","","","",""
"","html-keyboard-response","9","165116","0.0-1.0-1.0-1.0-1.0-5.0","null","Correct!","null","feedback","","","","","","","","","","","","","","","","","","","","","","",""
"","categorize-html","10","165815","0.0-1.0-1.0-1.0-1.0-6.0","692.5849999825004","<p style=""color: blue"">1</p>","83","n-switch","true","false","1","0","0","83","-1","true","","","","","","","","","","","","","","",""
"","html-keyboard-response","11","166579","0.0-1.0-1.0-1.0-1.0-7.0","null","Correct!","null","feedback","","","","","","","","","","","","","","","","","","","","","","",""
"","categorize-html","12","167093","0.0-1.0-1.0-1.0-1.0-8.0","509.5500000170432","<p style=""color: blue"">3</p>","83","n-switch","true","false","1","2","0","83","-1","true","","","","","","","","","","","","","","",""
"","html-keyboard-response","13","167850","0.0-1.0-1.0-1.0-1.0-9.0","null","Correct!","null","feedback","","","","","","","","","","","","","","","","","","","","","","",""
"","categorize-html","14","168578","0.0-1.0-1.0-1.0-1.0-10.0","724.4099999952596","<p style=""color: blue"">7</p>","70","n-switch","true","false","1","5","0","70","-1","true","","","","","","","","","","","","","","",""
"","html-keyboard-response","15","169342","0.0-1.0-1.0-1.0-1.0-11.0","null","Correct!","null","feedback","","","","","","","","","","","","","","","","","","","","","","",""
"","categorize-html","16","169970","0.0-1.0-1.0-1.0-1.0-12.0","624.6800000080839","<p style=""color: blue"">9</p>","70","n-switch","true","false","1","7","0","70","-1","true","","","","","","","","","","","","","","",""
"","html-keyboard-response","17","170739","0.0-1.0-1.0-1.0-1.0-13.0","null","Correct!","null","feedback","","","","","","","","","","","","","","","","","","","","","","",""
"","categorize-html","18","171215","0.0-1.0-1.0-1.0-1.0-14.0","471.29999997559935","<p style=""color: blue"">3</p>","83","n-switch","true","false","1","2","0","83","-1","true","","","","","","","","","","","","","","",""
"","html-keyboard-response","19","171977","0.0-1.0-1.0-1.0-1.0-15.0","null","Correct!","null","feedback","","","","","","","","","","","","","","","","","","","","","","",""
"","html-keyboard-response","20","177387","0.0-1.0-1.0-1.0-2.0","5407.680000003893","<p>You were <strong>87.5% accurate</strong>.</p><p>You will need to be at least 80% accurate to earn points in the real experiment.</p><p>In the real experiment, you will not receive the same feedback as during practice.</p><p>Press the space bar to continue. </p>","32","debrief","","","","","","","","true","87.5","","","","","","","","","","","","","",""
"","html-keyboard-response","21","185691","0.0-1.0-1.0-2.0-0.0-0.0","8302.200000005541","<p>On the next screen, please respond to the parity (even or odd?) of the numbers on screen.</p><p>Press <strong>H</strong> if the number is even.</p><p>Press <strong>K</strong> if the number is odd.</p><p>[Press the space bar to continue.]</p>","32","instructions","","","","","","","","","","","","","","","","","","","","","","",""
"","categorize-html","22","186611","0.0-1.0-1.0-2.0-1.0-0.0","916.3049999915529","<p style=""color: green"">7</p>","75","n-switch","true","false","2","5","0","75","-1","true","","","","","","","","","","","","","","",""
"","html-keyboard-response","23","187375","0.0-1.0-1.0-2.0-1.0-1.0","null","Correct!","null","feedback","","","","","","","","","","","","","","","","","","","","","","",""
"","categorize-html","24","187981","0.0-1.0-1.0-2.0-1.0-2.0","601.8099999928381","<p style=""color: green"">3</p>","75","n-switch","true","false","2","2","0","75","-1","true","","","","","","","","","","","","","","",""
"","html-keyboard-response","25","188739","0.0-1.0-1.0-2.0-1.0-3.0","null","Correct!","null","feedback","","","","","","","","","","","","","","","","","","","","","","",""
"","categorize-html","26","189284","0.0-1.0-1.0-2.0-1.0-4.0","541.1650000023656","<p style=""color: green"">2</p>","72","n-switch","true","false","2","1","0","72","-1","true","","","","","","","","","","","","","","",""
"","html-keyboard-response","27","190036","0.0-1.0-1.0-2.0-1.0-5.0","null","Correct!","null","feedback","","","","","","","","","","","","","","","","","","","","","","",""
"","categorize-html","28","190659","0.0-1.0-1.0-2.0-1.0-6.0","619.2950000113342","<p style=""color: green"">6</p>","75","n-switch","false","false","2","4","0","72","-1","true","","","","","","","","","","","","","","",""
"","html-keyboard-response","29","191414","0.0-1.0-1.0-2.0-1.0-7.0","null","Incorrect!","null","feedback","","","","","","","","","","","","","","","","","","","","","","",""
"","categorize-html","30","192028","0.0-1.0-1.0-2.0-1.0-8.0","610.049999988405","<p style=""color: green"">2</p>","72","n-switch","true","false","2","1","0","72","-1","true","","","","","","","","","","","","","","",""
"","html-keyboard-response","31","192794","0.0-1.0-1.0-2.0-1.0-9.0","null","Correct!","null","feedback","","","","","","","","","","","","","","","","","","","","","","",""
"","categorize-html","32","193381","0.0-1.0-1.0-2.0-1.0-10.0","583.2850000006147","<p style=""color: green"">3</p>","75","n-switch","true","false","2","2","0","75","-1","true","","","","","","","","","","","","","","",""
"","html-keyboard-response","33","194137","0.0-1.0-1.0-2.0-1.0-11.0","null","Correct!","null","feedback","","","","","","","","","","","","","","","","","","","","","","",""
"","categorize-html","34","194851","0.0-1.0-1.0-2.0-1.0-12.0","708.3799999963958","<p style=""color: green"">1</p>","75","n-switch","true","false","2","0","0","75","-1","true","","","","","","","","","","","","","","",""
"","html-keyboard-response","35","195604","0.0-1.0-1.0-2.0-1.0-13.0","null","Correct!","null","feedback","","","","","","","","","","","","","","","","","","","","","","",""
"","categorize-html","36","196232","0.0-1.0-1.0-2.0-1.0-14.0","624.3499999982305","<p style=""color: green"">4</p>","72","n-switch","true","false","2","3","0","72","-1","true","","","","","","","","","","","","","","",""
"","html-keyboard-response","37","196999","0.0-1.0-1.0-2.0-1.0-15.0","null","Correct!","null","feedback","","","","","","","","","","","","","","","","","","","","","","",""
"","html-keyboard-response","38","206027","0.0-1.0-1.0-2.0-2.0","9025.67000000272","<p>You were <strong>87.5% accurate</strong>.</p><p>You will need to be at least 80% accurate to earn points in the real experiment.</p><p>In the real experiment, you will not receive the same feedback as during practice.</p><p>Press the space bar to continue. </p>","32","debrief","","","","","","","","true","87.5","","","","","","","","","","","","","",""
"","html-keyboard-response","39","219809","0.0-1.0-1.0-3.0-0.0-0.0","13780.409999977564","<img src=""./static/img/fractal4.png"" width=""250"" height=""250""","32","","","","","","","","","","","","","","","","","","","","","","","",""
"","html-keyboard-response","40","229434","0.0-1.0-1.0-3.0-1.0-0.0","9622.085000009974","<p>Now, you will be responding to both rules, one at a time, depending on the color of the number on screen.</p><p>You will use four different keys, <strong>S, F, H, and K</strong> to respond.</p><p style=""color: blue"">If the number is blue, you will need to respond to its magnitude (less than or greater than 5?).</p><p style=""color: green"">If the number is green, you will need to respond to its parity (even or odd?).</p><p>Press the space bar to practice this task.</p>","32","instructions","","","","","","","","","","","","","","","","","","","","","","",""
"","categorize-html","41","230942","0.0-1.0-1.0-3.0-2.0-0.0","null","<p style=""color: green"">1</p>","null","n-switch","false","false","2","0","0.1","75","-1","true","","","","","","","","","","","","","","",""
"","html-keyboard-response","42","231697","0.0-1.0-1.0-3.0-2.0-1.0","null","Please respond in time!","null","feedback","","","","","","","","","","","","","","","","","","","","","","",""
"","categorize-html","43","232788","0.0-1.0-1.0-3.0-2.0-2.0","1086.444999993546","<p style=""color: green"">3</p>","72","n-switch","false","false","2","2","0.1","75","-1","true","","","","","","","","","","","","","","",""
"","html-keyboard-response","44","233554","0.0-1.0-1.0-3.0-2.0-3.0","null","Incorrect!","null","feedback","","","","","","","","","","","","","","","","","","","","","","",""
"","categorize-html","45","234671","0.0-1.0-1.0-3.0-2.0-4.0","1112.554999999702","<p style=""color: green"">6</p>","75","n-switch","false","false","2","4","0.1","72","-1","true","","","","","","","","","","","","","","",""
"","html-keyboard-response","46","235425","0.0-1.0-1.0-3.0-2.0-5.0","null","Incorrect!","null","feedback","","","","","","","","","","","","","","","","","","","","","","",""
"","categorize-html","47","236366","0.0-1.0-1.0-3.0-2.0-6.0","937.2199999925215","<p style=""color: green"">1</p>","75","n-switch","true","false","2","0","0.1","75","-1","true","","","","","","","","","","","","","","",""
"","html-keyboard-response","48","237130","0.0-1.0-1.0-3.0-2.0-7.0","null","Correct!","null","feedback","","","","","","","","","","","","","","","","","","","","","","",""
"","categorize-html","49","238172","0.0-1.0-1.0-3.0-2.0-8.0","1038.8000000093598","<p style=""color: green"">6</p>","72","n-switch","true","false","2","4","0.1","72","-1","true","","","","","","","","","","","","","","",""
"","html-keyboard-response","50","238931","0.0-1.0-1.0-3.0-2.0-9.0","null","Correct!","null","feedback","","","","","","","","","","","","","","","","","","","","","","",""
"","categorize-html","51","240042","0.0-1.0-1.0-3.0-2.0-10.0","1107.4049999879207","<p style=""color: green"">7</p>","75","n-switch","true","false","2","5","0.1","75","-1","true","","","","","","","","","","","","","","",""
"","html-keyboard-response","52","240808","0.0-1.0-1.0-3.0-2.0-11.0","null","Correct!","null","feedback","","","","","","","","","","","","","","","","","","","","","","",""
"","categorize-html","53","241646","0.0-1.0-1.0-3.0-2.0-12.0","834.3699999968521","<p style=""color: green"">4</p>","72","n-switch","true","false","2","3","0.1","72","-1","true","","","","","","","","","","","","","","",""
"","html-keyboard-response","54","242408","0.0-1.0-1.0-3.0-2.0-13.0","null","Correct!","null","feedback","","","","","","","","","","","","","","","","","","","","","","",""
"","categorize-html","55","243420","0.0-1.0-1.0-3.0-2.0-14.0","1007.9900000127964","<p style=""color: green"">8</p>","72","n-switch","true","false","2","6","0.1","72","-1","true","","","","","","","","","","","","","","",""
"","html-keyboard-response","56","244175","0.0-1.0-1.0-3.0-2.0-15.0","null","Correct!","null","feedback","","","","","","","","","","","","","","","","","","","","","","",""
"","categorize-html","57","244751","0.0-1.0-1.0-3.0-2.0-16.0","572.4049999844283","<p style=""color: green"">6</p>","72","n-switch","true","false","2","4","0.1","72","-1","true","","","","","","","","","","","","","","",""
"","html-keyboard-response","58","245510","0.0-1.0-1.0-3.0-2.0-17.0","null","Correct!","null","feedback","","","","","","","","","","","","","","","","","","","","","","",""
"","categorize-html","59","246737","0.0-1.0-1.0-3.0-2.0-18.0","1222.6499999815132","<p style=""color: blue"">8</p>","70","n-switch","true","true","1","6","0.1","70","-1","true","","","","","","","","","","","","","","",""
"","html-keyboard-response","60","247490","0.0-1.0-1.0-3.0-2.0-19.0","null","Correct!","null","feedback","","","","","","","","","","","","","","","","","","","","","","",""
"","html-keyboard-response","61","250141","0.0-1.0-1.0-3.0-3.0","2648.994999995921","<p>Your accuracy was <strong>70%</strong>.</p><p>You will need to be at least 80% accurate to earn points in the real experiment.</p><p>In the real experiment, you will not receive the same feedback as during practice.</p><p>Press the space bar to continue. </p>","32","debrief","","","","","","","","true","70","","","","","","","","","","","","","",""
"","html-keyboard-response","62","251688","0.0-1.0-1.0-4.0-0.0","1543.9200000255369","<p> You were 70% accurate.</p><p>You are not at 80% accuracy yet.</p><p>Let's try this task again.</p><p>[Press the space bar to continue.]</p>","32","","","","","","","","","","70","","","","","","","","","","","","","",""
"","html-keyboard-response","63","253750","0.0-1.0-1.0-5.0-0.0","2059.9899999797344","<p>You will get 3 more tries to get to 80% accuracy on this task.</p><p>Don't worry, most subjects need a few rounds of practice on this task.</p><p>If the feedback is more distracting than helpful, try your best to just ignore it.</p><p>[Press space bar to try again.]</p>","32","","","","","","","","","","","1","","","","","","","","","","","","",""
"","html-keyboard-response","64","255734","0.0-1.0-1.0-6.0-0.0-0.0","1981.774999992922","<img src=""./static/img/fractal4.png"" width=""250"" height=""250""","32","","","","","","","","","","","","","","","","","","","","","","","",""
"","html-keyboard-response","65","259175","0.0-1.0-1.0-6.0-1.0-0.0","3438.9249999949243","<p>Now, you will be responding to both rules, one at a time, depending on the color of the number on screen.</p><p>You will use four different keys, <strong>S, F, H, and K</strong> to respond.</p><p style=""color: blue"">If the number is blue, you will need to respond to its parity (even or odd?).</p><p style=""color: green"">If the number is green, you will need to respond to its magnitude (less than or greater than 5?).</p><p>Press the space bar to practice this task.</p>","32","instructions","","","","","","","","","","","","","","","","","","","","","","",""
"","categorize-html","66","260580","0.0-1.0-1.0-6.0-2.0-0.0","1401.6199999896344","<p style=""color: blue"">2</p>","72","n-switch","false","false","1","1","0.1","83","-1","true","","","","","","","","","","","","","","",""
"","html-keyboard-response","67","261339","0.0-1.0-1.0-6.0-2.0-1.0","null","Incorrect!","null","feedback","","","","","","","","","","","","","","","","","","","","","","",""
"","categorize-html","68","262015","0.0-1.0-1.0-6.0-2.0-2.0","672.179999994114","<p style=""color: blue"">2</p>","75","n-switch","false","false","1","1","0.1","83","-1","true","","","","","","","","","","","","","","",""
"","html-keyboard-response","69","262779","0.0-1.0-1.0-6.0-2.0-3.0","null","Incorrect!","null","feedback","","","","","","","","","","","","","","","","","","","","","","",""
"","categorize-html","70","263570","0.0-1.0-1.0-6.0-2.0-4.0","786.614999989979","<p style=""color: blue"">6</p>","70","n-switch","true","false","1","4","0.1","70","-1","true","","","","","","","","","","","","","","",""
"","html-keyboard-response","71","264335","0.0-1.0-1.0-6.0-2.0-5.0","null","Correct!","null","feedback","","","","","","","","","","","","","","","","","","","","","","",""
"","categorize-html","72","265030","0.0-1.0-1.0-6.0-2.0-6.0","690.7850000134204","<p style=""color: blue"">9</p>","83","n-switch","false","false","1","7","0.1","70","-1","true","","","","","","","","","","","","","","",""
"","html-keyboard-response","73","265790","0.0-1.0-1.0-6.0-2.0-7.0","null","Incorrect!","null","feedback","","","","","","","","","","","","","","","","","","","","","","",""
"","categorize-html","74","266699","0.0-1.0-1.0-6.0-2.0-8.0","904.1100000031292","<p style=""color: blue"">4</p>","83","n-switch","true","false","1","3","0.1","83","-1","true","","","","","","","","","","","","","","",""
"","html-keyboard-response","75","267461","0.0-1.0-1.0-6.0-2.0-9.0","null","Correct!","null","feedback","","","","","","","","","","","","","","","","","","","","","","",""
"","categorize-html","76","268217","0.0-1.0-1.0-6.0-2.0-10.0","752.7650000120047","<p style=""color: blue"">1</p>","83","n-switch","true","false","1","0","0.1","83","-1","true","","","","","","","","","","","","","","",""
"","html-keyboard-response","77","268975","0.0-1.0-1.0-6.0-2.0-11.0","null","Correct!","null","feedback","","","","","","","","","","","","","","","","","","","","","","",""
"","categorize-html","78","270175","0.0-1.0-1.0-6.0-2.0-12.0","1196.025000012014","<p style=""color: green"">8</p>","72","n-switch","true","true","2","6","0.1","72","-1","true","","","","","","","","","","","","","","",""
"","html-keyboard-response","79","270929","0.0-1.0-1.0-6.0-2.0-13.0","null","Correct!","null","feedback","","","","","","","","","","","","","","","","","","","","","","",""
"","categorize-html","80","271689","0.0-1.0-1.0-6.0-2.0-14.0","755.4999999993015","<p style=""color: green"">2</p>","72","n-switch","true","false","2","1","0.1","72","-1","true","","","","","","","","","","","","","","",""
"","html-keyboard-response","81","272452","0.0-1.0-1.0-6.0-2.0-15.0","null","Correct!","null","feedback","","","","","","","","","","","","","","","","","","","","","","",""
"","categorize-html","82","272999","0.0-1.0-1.0-6.0-2.0-16.0","544.0250000101514","<p style=""color: green"">6</p>","72","n-switch","true","false","2","4","0.1","72","-1","true","","","","","","","","","","","","","","",""
"","html-keyboard-response","83","273757","0.0-1.0-1.0-6.0-2.0-17.0","null","Correct!","null","feedback","","","","","","","","","","","","","","","","","","","","","","",""
"","categorize-html","84","274474","0.0-1.0-1.0-6.0-2.0-18.0","713.5999999882188","<p style=""color: green"">4</p>","72","n-switch","true","false","2","3","0.1","72","-1","true","","","","","","","","","","","","","","",""
"","html-keyboard-response","85","275244","0.0-1.0-1.0-6.0-2.0-19.0","null","Correct!","null","feedback","","","","","","","","","","","","","","","","","","","","","","",""
"","html-keyboard-response","86","277153","0.0-1.0-1.0-6.0-3.0","1907.084999984363","<p>Your accuracy was <strong>70%</strong>.</p><p>You will need to be at least 80% accurate to earn points in the real experiment.</p><p>In the real experiment, you will not receive the same feedback as during practice.</p><p>Press the space bar to continue. </p>","32","debrief","","","","","","","","true","70","","","","","","","","","","","","","",""
"","html-keyboard-response","87","278486","0.0-1.0-1.0-7.0-0.0","1330.4499999794643","<p> You were 70% accurate.</p><p>You are not at 80% accuracy yet.</p><p>Let's try this task again.</p><p>[Press the space bar to continue.]</p>","32","","","","","","","","","","70","","","","","","","","","","","","","",""
"","html-keyboard-response","88","280377","0.0-1.0-1.0-8.0-0.0","1890.0549999962095","<p>You will get 2 more tries to get to 80% accuracy on this task.</p><p>Don't worry, most subjects need a few rounds of practice on this task.</p><p>If the feedback is more distracting than helpful, try your best to just ignore it.</p><p>[Press space bar to try again.]</p>","32","","","","","","","","","","","2","","","","","","","","","","","","",""
"","html-keyboard-response","89","281132","0.0-1.0-1.0-9.0-0.0-0.0","753.3899999980349","<img src=""./static/img/fractal4.png"" width=""250"" height=""250""","32","","","","","","","","","","","","","","","","","","","","","","","",""
"","html-keyboard-response","90","282103","0.0-1.0-1.0-9.0-1.0-0.0","969.054999994114","<p>Now, you will be responding to both rules, one at a time, depending on the color of the number on screen.</p><p>You will use four different keys, <strong>S, F, H, and K</strong> to respond.</p><p style=""color: blue"">If the number is blue, you will need to respond to its magnitude (less than or greater than 5?).</p><p style=""color: green"">If the number is green, you will need to respond to its parity (even or odd?).</p><p>Press the space bar to practice this task.</p>","32","instructions","","","","","","","","","","","","","","","","","","","","","","",""
"","categorize-html","91","283612","0.0-1.0-1.0-9.0-2.0-0.0","null","<p style=""color: green"">1</p>","null","n-switch","false","false","2","0","0.1","75","-1","true","","","","","","","","","","","","","","",""
"","html-keyboard-response","92","284380","0.0-1.0-1.0-9.0-2.0-1.0","null","Please respond in time!","null","feedback","","","","","","","","","","","","","","","","","","","","","","",""
"","categorize-html","93","285653","0.0-1.0-1.0-9.0-2.0-2.0","1270.4549999907613","<p style=""color: green"">6</p>","72","n-switch","true","false","2","4","0.1","72","-1","true","","","","","","","","","","","","","","",""
"","html-keyboard-response","94","286409","0.0-1.0-1.0-9.0-2.0-3.0","null","Correct!","null","feedback","","","","","","","","","","","","","","","","","","","","","","",""
"","categorize-html","95","287150","0.0-1.0-1.0-9.0-2.0-4.0","737.3200000147335","<p style=""color: green"">2</p>","72","n-switch","true","false","2","1","0.1","72","-1","true","","","","","","","","","","","","","","",""
"","html-keyboard-response","96","287907","0.0-1.0-1.0-9.0-2.0-5.0","null","Correct!","null","feedback","","","","","","","","","","","","","","","","","","","","","","",""
"","categorize-html","97","288678","0.0-1.0-1.0-9.0-2.0-6.0","766.8399999965914","<p style=""color: green"">7</p>","75","n-switch","true","false","2","5","0.1","75","-1","true","","","","","","","","","","","","","","",""
"","html-keyboard-response","98","289445","0.0-1.0-1.0-9.0-2.0-7.0","null","Correct!","null","feedback","","","","","","","","","","","","","","","","","","","","","","",""
"","categorize-html","99","290336","0.0-1.0-1.0-9.0-2.0-8.0","880.33000001451","<p style=""color: blue"">9</p>","70","n-switch","true","true","1","7","0.1","70","-1","true","","","","","","","","","","","","","","",""
"","html-keyboard-response","100","291089","0.0-1.0-1.0-9.0-2.0-9.0","null","Correct!","null","feedback","","","","","","","","","","","","","","","","","","","","","","",""
"","categorize-html","101","291999","0.0-1.0-1.0-9.0-2.0-10.0","906.1649999930523","<p style=""color: blue"">3</p>","83","n-switch","true","false","1","2","0.1","83","-1","true","","","","","","","","","","","","","","",""
"","html-keyboard-response","102","292753","0.0-1.0-1.0-9.0-2.0-11.0","null","Correct!","null","feedback","","","","","","","","","","","","","","","","","","","","","","",""
"","categorize-html","103","293580","0.0-1.0-1.0-9.0-2.0-12.0","818.874999997206","<p style=""color: blue"">3</p>","83","n-switch","true","false","1","2","0.1","83","-1","true","","","","","","","","","","","","","","",""
"","html-keyboard-response","104","294348","0.0-1.0-1.0-9.0-2.0-13.0","null","Correct!","null","feedback","","","","","","","","","","","","","","","","","","","","","","",""
"","categorize-html","105","295031","0.0-1.0-1.0-9.0-2.0-14.0","678.87500001234","<p style=""color: blue"">1</p>","83","n-switch","true","false","1","0","0.1","83","-1","true","","","","","","","","","","","","","","",""
"","html-keyboard-response","106","295793","0.0-1.0-1.0-9.0-2.0-15.0","null","Correct!","null","feedback","","","","","","","","","","","","","","","","","","","","","","",""
"","categorize-html","107","296369","0.0-1.0-1.0-9.0-2.0-16.0","571.7149999982212","<p style=""color: blue"">1</p>","83","n-switch","true","false","1","0","0.1","83","-1","true","","","","","","","","","","","","","","",""
"","html-keyboard-response","108","297122","0.0-1.0-1.0-9.0-2.0-17.0","null","Correct!","null","feedback","","","","","","","","","","","","","","","","","","","","","","",""
"","categorize-html","109","297652","0.0-1.0-1.0-9.0-2.0-18.0","524.6350000088569","<p style=""color: blue"">1</p>","83","n-switch","true","false","1","0","0.1","83","-1","true","","","","","","","","","","","","","","",""
"","html-keyboard-response","110","298416","0.0-1.0-1.0-9.0-2.0-19.0","null","Correct!","null","feedback","","","","","","","","","","","","","","","","","","","","","","",""
"","html-keyboard-response","111","301822","0.0-1.0-1.0-9.0-3.0","3403.5750000039116","<p>Your accuracy was <strong>90%</strong>.</p><p>You will need to be at least 80% accurate to earn points in the real experiment.</p><p>In the real experiment, you will not receive the same feedback as during practice.</p><p>Press the space bar to continue. </p>","32","debrief","","","","","","","","true","90","","","","","","","","","","","","","",""
"","html-keyboard-response","112","303644","0.0-1.0-1.0-13.0-0.0","1820.7950000069104","<p>Good job! You have reached 80% accuracy on this practice task. We will now move on.</p><p>[Press the space bar to continue.]</p>","32","debrief","","","","","","","","","","","","","","","","","","","","","","",""
"","html-keyboard-response","113","337375","0.0-1.0-2.0-0.0-0.0","33728.464999992866","<p>Please read these instructions carefully, as you will be tested on your understanding of them.</p><p>Before each round begins, you will be asked how many points is a fair wage to be at least 80% accurate at one of the tasks you just practiced.</p><p>We want you to tell us truthfully how many points is a fair wage, and so we are using a payment process where <strong>telling the truth is the best strategy.</strong></p><p>This means that <strong>you have some control over what you will be paid</strong> at the end of the experiment.</p><p>Whenever given a choice, <strong> the best thing you can do is to always ask for what you consider to be a fair wage for at least 80% accuracy on the task.</strong></p><p>[Press the space bar to continue.]</p>","32","","","","","","","","","","","","","","","","","","","","","","","",""
"","html-keyboard-response","114","360049","0.0-1.0-2.0-1.0-0.0","22671.57999999472","<p>What do we mean by ""fair wage""?</p><p>When you get hired to complete some work, you may ask for more or less payment based on how much you would enjoy doing that work.</p><p>For example, you might dislike mowing the lawn more than watering the garden, and may ask for more in return for mowing the lawn.</p><p>A fair wage for you is the amount of points you think it would be fair for you to receive in exchange for your completion of the task.</p><p>While you won't get paid exactly what you ask for, the best strategy is to ask for what you truly believe is a fair wage for you.</p><p>We're not going to get into the exact reasons why until the end of the experiment.</p><p>[Press the space bar to continue.]</p>","32","","","","","","","","","","","","","","","","","","","","","","","",""
"","html-keyboard-response","115","408953","0.0-1.0-2.0-2.0-0.0","48902.51499999431","<p>In short, once you report your fair wage, the computer will present you with a <strong> random offer.</strong></p><p>If you ask for fewer points than the computer offers you, then you will complete the task and be given the points the computer offered.</p><p>Say you ask for 3 points and the computer offers 4, then if you pass the task with at least 80% accuracy, you will be given 4 points.</p><p>If you ask for more points than the computer offers you, then you will do a different task on that round. The alternate task is worth <strong>1 point.</strong></p><p>For example, if you ask for 5 points and the computer offers 4 points, then you will do something else and be given 1 point.</p><p>There is no way to game the payment system. You will either get the computer's random point offer, or 1 point for an alternative task.</p><p>[Press the space bar to continue.]</p>","32","","","","","","","","","","","","","","","","","","","","","","","",""
"","html-slider-response","116","424326","0.0-1.0-2.0-3.0-0.0-0.0","15366.5500000061","<img src=""./static/img/fractal3.jpg"" width=""250"" height=""250""","","instructs","","","","","","","","","","","44","","","","","","","","","","","",""
"","html-keyboard-response","117","435427","0.0-1.0-2.0-3.0-1.0-0.0","11099.114999989979","<p>You asked for 2.76 points.</p><p>The computer offered 4.88 points.</p><p>Because the computer's offer is larger, you would move onto the pictured task and, if you achieved 80% accuracy on this task, you would be given 4.88 points at the end.</p><p>Press the space bar to continue.</p>","32","","","","","","","","","","","","","","","","","","","","","","","",""
"","html-slider-response","118","439727","0.0-1.0-2.0-3.0-2.0-0.0","4296.559999987949","<img src=""./static/img/fractal3.jpg"" width=""250"" height=""250""","","instructs","","","","","","","","","","","92","","","","","","","","","","","",""
"","html-keyboard-response","119","459119","0.0-1.0-2.0-3.0-3.0-0.0","19390.299999999115","<p>You asked for 4.68 points.</p><p>The computer offered 1.24 points.</p><p>Because the computer's offer is smaller, you would skip the pictured task and, if you achieved 80% accuracy on an alternate task, you would be given 1 point at the end.</p><p>Press the space bar to continue.</p>","32","","","","","","","","","","","","","","","","","","","","","","","",""
"","html-keyboard-response","120","475280","0.0-1.0-2.0-4.0-0.0","16158.850000007078","<p><strong> Your best strategy is to always ask for what you believe is a fair wage for hitting at least 80% accuracy on 1 round of a task.</strong></p><p>We will now quiz you on the instructions you've just read. If you fail this quiz, you cannot participate in this experiment.</p><p>Press R if you'd like to read these instructions again.</p><p>Press the space bar if you'd like to move on to the quiz.</p>","32","","","","","","","","","","","","","","","","","","","","","","","",""
"","categorize-html","121","484547","0.0-1.0-2.0-6.0-0.0","7257.0899999991525","<p'font-size':15px>[Question 1 of 6]</p><p'font-size':25px>[Press A or B to indicate your answer.]</p><p'font-size':25px>Imagine you think a true fair wage is 2 points. Which amount should you ask for?</p><p 'font-size':25px> A. 4</p><p 'font-size':25px> B. 2</p>","66","quiz","true","","","","","","","","","","","","","","","","","","","","","",""
"","categorize-html","122","503240","0.0-1.0-2.0-6.0-0.1","16670.615000010002","<p'font-size':15px>[Question 2 of 6]</p><p'font-size':25px>[Press A or B to indicate your answer.]</p><p><img src='./static/img/offer_big.png'></p><p'font-size':25px>What happens when you ask for <strong>more</strong> points than the computer offers?</p><p>A. You will start the pictured task, and get the points the computer offered if you pass that round.</p><p 'font-size':25px> B. You will start a different task and be given 1 point if you pass that round.</p>","66","quiz","true","","","","","","","","","","","","","","","","","","","","","",""
"","categorize-html","123","516085","0.0-1.0-2.0-6.0-0.2","10840.939999994589","<p'font-size':15px>[Question 3 of 6]</p><p'font-size':25px>[Press A or B to indicate your answer.]</p><p'font-size':25px>Under which of the following two conditions will you do the pictured task?</p><p>A. When you ask for 2 points, and the computer randomly offers 3 points.</p><p 'font-size':25px> B. When you ask for 2 points, and the computer randomly offers 1 point.</p>","65","quiz","true","","","","","","","","","","","","","","","","","","","","","",""
"","categorize-html","124","526161","0.0-1.0-2.0-6.0-0.3","8068.165000004228","<p'font-size':15px>[Question 4 of 6]</p><p'font-size':25px>[Press A or B to indicate your answer.]</p><p><img src='./static/img/offer_small.png'></p><p'font-size':25px>What happens when you ask for <strong>fewer</strong> points than the computer offers?</p><p>A. You will start the task, and get the points the computer offered if you pass that round.</p><p 'font-size':25px> B. You will start a different task and be given 1 point if you pass that round.</p>","65","quiz","true","","","","","","","","","","","","","","","","","","","","","",""
"","categorize-html","125","542312","0.0-1.0-2.0-6.0-0.4","14143.03999999538","<p'font-size':15px>[Question 5 of 6]</p><p'font-size':25px>[Press A or B to indicate your answer.]</p><p'font-size':25px>Under which of the following two conditions will you <strong>not</strong> do the pictured task?</p><p>A. When you ask for 3 points, and the computer randomly offers 2 points.</p><p 'font-size':25px> B. When you ask for 3 points, and the computer randomly offers 4 points.</p>","65","quiz","true","","","","","","","","","","","","","","","","","","","","","",""
"","categorize-html","126","550223","0.0-1.0-2.0-6.0-0.5","5903.874999989057","<p'font-size':15px>[Question 6 of 6]</p><p'font-size':25px>[Press A or B to indicate your answer.]</p><p'font-size':25px>Which is the correct strategy for asking for points?</p><p>A. Ask for as many points as possible.</p><p 'font-size':25px> B. Tell the truth about what is a fair wage for you.</p>","66","quiz","true","","","","","","","","","","","","","","","","","","","","","",""
"","html-keyboard-response","127","552151","0.0-1.0-2.0-7.0-0.0","1926.6350000107195","<p>Great job! We will now begin the real experiment.</p><p>[Press the space bar to continue.]</p>","32","BDMquiz","","","","","","","","","","","","100","","","","","","","","","","",""
"","html-keyboard-response","128","565091","0.0-1.0-3.0-0.0","12937.169999990147","<p>The real experiment will now start. </p><p>For each round of the experiment, you will be asked how many points you would like to earn to complete a task.</p><p>If you ask for more points than a randomly generated number, you will not complete that task. </p><p>Instead, you will complete a different task and earn 1 point.</p><p>At the end of the experiment, the points you earn will be counted and turned into a bonus payment. $$</p><p>[Press the space bar to continue.]</p>","32","instructions","","","","","","","","","","","","","","","","","","","","","","",""
"","html-keyboard-response","129","589912","0.0-1.0-4.0-0.0","24818.8300000038","<p>Pay attention! If you are not at least 80% accurate, you will not earn points for completing each task.</p><p>You will not be getting the same amount of feedback on your performance in the real experiment.</p><p>If you press a button, the stimulus on screen will change color to show you that the computer registered your response.</p><p>At the end of the experiment, we'll ask you to complete some optional survey questions.</p><p>If we can tell that you are not paying attention (not accurate enough or not responding quickly enough), then this experiment will end early and you will earn a smaller payment. $$</p><p>[Press the space bar to begin the real experiment.]</p>","32","instructions","","","","","","","","","","","","","","","","","","","","","","",""
"","html-slider-response","130","604157","0.0-2.0-0.0-0.0","14241.115000011632","<img src=""./static/img/fractal4.png"" width=""250"" height=""250""","","BDM","","","","","","","0","","","","28","","3","21.048337339707103","","","","","","","","",""
"","html-keyboard-response","131","617695","0.0-2.0-1.0-0.0","13535.934999992605","<p style='font-size':25px> You want <strong> 2.12 </strong> points. </p> <p> The computer offers <strong>1.56</strong> points. </p><p> You will do the following task instead to earn 1 point. </p> <img src=""./static/img/fractal4.png"" width=""250"" height=""250"" location='center'></img><p>[Press the space bar to continue.]</p>","32","","","","","","","","","","","","","","","","","","","","","","","",""
"","html-keyboard-response","132","617809","0.0-2.0-3.0-0.0","null","+","null","","","","","","","","","","","","","","","","","","","","","","","",""
"","html-keyboard-response","133","631895","0.0-2.0-3.0-1.0-0.0","14084.55500000855","<p>In this task, you will need to follow different rules depending on the color of the numbers on screen.</p><p style=""color: blue"">If the number is blue, you will need to respond to its magnitude (less than or greater than 5?).</p><p style=""color: green"">If the number is green, you will need to respond to its parity (even or odd?).</p><p>[Press the space bar to continue.]</p>","32","instructions","","","","","","","","","","","","","","","","","","","","","","",""
"","categorize-html","134","633173","0.0-2.0-3.0-2.0-0.0","1274.7549999912735","<p style=""color: green"" >1</p>","65","n-switch","false","false","2","0","0.1","75","0","false","","","","","","","","","","","","","","",""
"","html-keyboard-response","135","633415","0.0-2.0-3.0-2.0-1.0","null","<p style=""color: black"">1</p>","null","feedback","","","","","","","","","","","","","","","","","","","","","","",""
"","html-keyboard-response","136","633727","0.0-2.0-3.0-2.0-2.0","null"," ","null","ITI","","","","","","","","","","","","","","","","","","","","","","",""
"","categorize-html","137","635253","0.0-2.0-3.0-2.0-3.0","null","<p style=""color: green"" >7</p>","null","n-switch","false","false","2","5","0.1","75","0","false","","","","","","","","","","","","","","",""
"","html-keyboard-response","138","635260","0.0-2.0-3.0-2.0-4.0","null","<p style=""color: black"">7</p>","null","feedback","","","","","","","","","","","","","","","","","","","","","","",""
"","html-keyboard-response","139","635562","0.0-2.0-3.0-2.0-5.0","null"," ","null","ITI","","","","","","","","","","","","","","","","","","","","","","",""
"","categorize-html","140","636803","0.0-2.0-3.0-2.0-6.0","1236.9199999957345","<p style=""color: green"" >4</p>","76","n-switch","false","false","2","3","0.1","72","0","false","","","","","","","","","","","","","","",""
"","html-keyboard-response","141","637070","0.0-2.0-3.0-2.0-7.0","null","<p style=""color: black"">4</p>","null","feedback","","","","","","","","","","","","","","","","","","","","","","",""
"","html-keyboard-response","142","637380","0.0-2.0-3.0-2.0-8.0","null"," ","null","ITI","","","","","","","","","","","","","","","","","","","","","","",""
"","categorize-html","143","638397","0.0-2.0-3.0-2.0-9.0","1014.0299999911804","<p style=""color: green"" >6</p>","76","n-switch","false","false","2","4","0.1","72","0","false","","","","","","","","","","","","","","",""
"","html-keyboard-response","144","638894","0.0-2.0-3.0-2.0-10.0","null","<p style=""color: black"">6</p>","null","feedback","","","","","","","","","","","","","","","","","","","","","","",""
"","html-keyboard-response","145","639198","0.0-2.0-3.0-2.0-11.0","null"," ","null","ITI","","","","","","","","","","","","","","","","","","","","","","",""
"","categorize-html","146","639950","0.0-2.0-3.0-2.0-12.0","749.0399999951478","<p style=""color: green"" >3</p>","74","n-switch","false","false","2","2","0.1","75","0","false","","","","","","","","","","","","","","",""
"","html-keyboard-response","147","640710","0.0-2.0-3.0-2.0-13.0","null","<p style=""color: black"">3</p>","null","feedback","","","","","","","","","","","","","","","","","","","","","","",""
"","html-keyboard-response","148","641014","0.0-2.0-3.0-2.0-14.0","null"," ","null","ITI","","","","","","","","","","","","","","","","","","","","","","",""
"","categorize-html","149","641991","0.0-2.0-3.0-2.0-15.0","971.5800000121817","<p style=""color: green"" >4</p>","76","n-switch","false","false","2","3","0.1","72","0","false","","","","","","","","","","","","","","",""
"","html-keyboard-response","150","642525","0.0-2.0-3.0-2.0-16.0","null","<p style=""color: black"">4</p>","null","feedback","","","","","","","","","","","","","","","","","","","","","","",""
"","html-keyboard-response","151","642839","0.0-2.0-3.0-2.0-17.0","null"," ","null","ITI","","","","","","","","","","","","","","","","","","","","","","",""
"","categorize-html","152","643433","0.0-2.0-3.0-2.0-18.0","590.5250000068918","<p style=""color: blue"" >1</p>","65","n-switch","false","true","1","0","0.1","83","0","false","","","","","","","","","","","","","","",""
"","html-keyboard-response","153","644347","0.0-2.0-3.0-2.0-19.0","null","<p style=""color: black"">1</p>","null","feedback","","","","","","","","","","","","","","","","","","","","","","",""
"","html-keyboard-response","154","644660","0.0-2.0-3.0-2.0-20.0","null"," ","null","ITI","","","","","","","","","","","","","","","","","","","","","","",""
"","categorize-html","155","645371","0.0-2.0-3.0-2.0-21.0","707.5300000142306","<p style=""color: blue"" >3</p>","65","n-switch","false","false","1","2","0.1","83","0","false","","","","","","","","","","","","","","",""
"","html-keyboard-response","156","646165","0.0-2.0-3.0-2.0-22.0","null","<p style=""color: black"">3</p>","null","feedback","","","","","","","","","","","","","","","","","","","","","","",""
"","html-keyboard-response","157","646472","0.0-2.0-3.0-2.0-23.0","null"," ","null","ITI","","","","","","","","","","","","","","","","","","","","","","",""
"","categorize-html","158","646996","0.0-2.0-3.0-2.0-24.0","520.5650000134483","<p style=""color: blue"" >4</p>","65","n-switch","false","false","1","3","0.1","83","0","false","","","","","","","","","","","","","","",""
"","html-keyboard-response","159","647983","0.0-2.0-3.0-2.0-25.0","null","<p style=""color: black"">4</p>","null","feedback","","","","","","","","","","","","","","","","","","","","","","",""
"","html-keyboard-response","160","648286","0.0-2.0-3.0-2.0-26.0","null"," ","null","ITI","","","","","","","","","","","","","","","","","","","","","","",""
"","categorize-html","161","648956","0.0-2.0-3.0-2.0-27.0","666.4250000030734","<p style=""color: blue"" >7</p>","68","n-switch","false","false","1","5","0.1","70","0","false","","","","","","","","","","","","","","",""
"","html-keyboard-response","162","649803","0.0-2.0-3.0-2.0-28.0","null","<p style=""color: black"">7</p>","null","feedback","","","","","","","","","","","","","","","","","","","","","","",""
"","html-keyboard-response","163","650108","0.0-2.0-3.0-2.0-29.0","null"," ","null","ITI","","","","","","","","","","","","","","","","","","","","","","",""
"","categorize-html","164","650761","0.0-2.0-3.0-2.0-30.0","649.9300000141375","<p style=""color: blue"" >4</p>","65","n-switch","false","false","1","3","0.1","83","0","false","","","","","","","","","","","","","","",""
"","html-keyboard-response","165","651625","0.0-2.0-3.0-2.0-31.0","null","<p style=""color: black"">4</p>","null","feedback","","","","","","","","","","","","","","","","","","","","","","",""
"","html-keyboard-response","166","651940","0.0-2.0-3.0-2.0-32.0","null"," ","null","ITI","","","","","","","","","","","","","","","","","","","","","","",""
"","categorize-html","167","653230","0.0-2.0-3.0-2.0-33.0","1286.5199999941979","<p style=""color: green"" >9</p>","74","n-switch","false","true","2","7","0.1","75","0","false","","","","","","","","","","","","","","",""
"","html-keyboard-response","168","653453","0.0-2.0-3.0-2.0-34.0","null","<p style=""color: black"">9</p>","null","feedback","","","","","","","","","","","","","","","","","","","","","","",""
"","html-keyboard-response","169","653761","0.0-2.0-3.0-2.0-35.0","null"," ","null","ITI","","","","","","","","","","","","","","","","","","","","","","",""
"","categorize-html","170","654640","0.0-2.0-3.0-2.0-36.0","875.594999990426","<p style=""color: green"" >4</p>","76","n-switch","false","false","2","3","0.1","72","0","false","","","","","","","","","","","","","","",""
"","html-keyboard-response","171","655274","0.0-2.0-3.0-2.0-37.0","null","<p style=""color: black"">4</p>","null","feedback","","","","","","","","","","","","","","","","","","","","","","",""
"","html-keyboard-response","172","655590","0.0-2.0-3.0-2.0-38.0","null"," ","null","ITI","","","","","","","","","","","","","","","","","","","","","","",""
"","categorize-html","173","657068","0.0-2.0-3.0-2.0-39.0","1474.6950000117067","<p style=""color: blue"" >9</p>","68","n-switch","false","true","1","7","0.1","70","0","false","","","","","","","","","","","","","","",""
"","html-keyboard-response","174","657098","0.0-2.0-3.0-2.0-40.0","null","<p style=""color: black"">9</p>","null","feedback","","","","","","","","","","","","","","","","","","","","","","",""
"","html-keyboard-response","175","657405","0.0-2.0-3.0-2.0-41.0","null"," ","null","ITI","","","","","","","","","","","","","","","","","","","","","","",""
"","categorize-html","176","658397","0.0-2.0-3.0-2.0-42.0","988.6899999983143","<p style=""color: blue"" >8</p>","68","n-switch","false","false","1","6","0.1","70","0","false","","","","","","","","","","","","","","",""
"","html-keyboard-response","177","658912","0.0-2.0-3.0-2.0-43.0","null","<p style=""color: black"">8</p>","null","feedback","","","","","","","","","","","","","","","","","","","","","","",""
"","html-keyboard-response","178","659218","0.0-2.0-3.0-2.0-44.0","null"," ","null","ITI","","","","","","","","","","","","","","","","","","","","","","",""
"","html-keyboard-response","179","661831","0.0-2.0-3.0-3.0","2610.415000002831","<p>You were not accurate enough. You earned 0 points.</p> </p><p>Press the space bar to continue. </p>","32","debrief","","","","","","","","","","","","","","","","","","","","","","",""
"","html-slider-response","180","676098","0.0-2.0-4.0-0.0","14263.92999998643","<img src=""./static/img/fractal4.png"" width=""250"" height=""250""","","BDM","","","","","","","1","","","","16","","3","63.34270963333894","","","","","","","","",""
"","html-keyboard-response","181","680111","0.0-2.0-5.0-0.0","4010.810000007041","<p style='font-size':25px> You want <strong> 1.64 </strong> points. </p> <p> The computer offers <strong>3.56</strong> points. </p><p> You will be given 3.56 points if you achieve at least 80% accuracy on this task. </p><img src=""./static/img/fractal4.png"" width=""250"" height=""250"" location='center'></img><p>[Press the space bar to continue.]</p>","32","","","","","","","","","","","","","","","","","","","","","","","",""
"","html-keyboard-response","182","680214","0.0-2.0-6.0-0.0","null","+","null","","","","","","","","","","","","","","","","","","","","","","","",""
"","html-keyboard-response","183","694995","0.0-2.0-6.0-1.0-0.0","14779.624999995576","<p>In this task, you will need to follow different rules depending on the color of the numbers on screen.</p><p style=""color: blue"">If the number is blue, you will need to respond to its parity (even or odd?).</p><p style=""color: green"">If the number is green, you will need to respond to its magnitude (less than or greater than 5?).</p><p>[Press the space bar to continue.]</p>","32","instructions","","","","","","","","","","","","","","","","","","","","","","",""
"","categorize-html","184","696500","0.0-2.0-6.0-2.0-0.0","null","<p style=""color: blue"" >8</p>","null","n-switch","false","true","1","6","0.9","70","1","false","","","","","","","","","","","","","","",""
"","html-keyboard-response","185","696502","0.0-2.0-6.0-2.0-1.0","null","<p style=""color: black"">8</p>","null","feedback","","","","","","","","","","","","","","","","","","","","","","",""
"","html-keyboard-response","186","696819","0.0-2.0-6.0-2.0-2.0","null"," ","null","ITI","","","","","","","","","","","","","","","","","","","","","","",""
"","categorize-html","187","697570","0.0-2.0-6.0-2.0-3.0","747.4499999952968","<p style=""color: green"" >8</p>","74","n-switch","false","true","2","6","0.9","72","1","false","","","","","","","","","","","","","","",""
"","html-keyboard-response","188","698342","0.0-2.0-6.0-2.0-4.0","null","<p style=""color: black"">8</p>","null","feedback","","","","","","","","","","","","","","","","","","","","","","",""
"","html-keyboard-response","189","698658","0.0-2.0-6.0-2.0-5.0","null"," ","null","ITI","","","","","","","","","","","","","","","","","","","","","","",""
"","categorize-html","190","700049","0.0-2.0-6.0-2.0-6.0","1387.445000000298","<p style=""color: blue"" >3</p>","76","n-switch","false","true","1","2","0.9","83","1","false","","","","","","","","","","","","","","",""
"","html-keyboard-response","191","700163","0.0-2.0-6.0-2.0-7.0","null","<p style=""color: black"">3</p>","null","feedback","","","","","","","","","","","","","","","","","","","","","","",""
"","html-keyboard-response","192","700474","0.0-2.0-6.0-2.0-8.0","null"," ","null","ITI","","","","","","","","","","","","","","","","","","","","","","",""
"","categorize-html","193","701686","0.0-2.0-6.0-2.0-9.0","1208.310000016354","<p style=""color: green"" >7</p>","76","n-switch","false","true","2","5","0.9","75","1","false","","","","","","","","","","","","","","",""
"","html-keyboard-response","194","701984","0.0-2.0-6.0-2.0-10.0","null","<p style=""color: black"">7</p>","null","feedback","","","","","","","","","","","","","","","","","","","","","","",""
"","html-keyboard-response","195","702287","0.0-2.0-6.0-2.0-11.0","null"," ","null","ITI","","","","","","","","","","","","","","","","","","","","","","",""
"","categorize-html","196","703817","0.0-2.0-6.0-2.0-12.0","null","<p style=""color: blue"" >9</p>","null","n-switch","false","true","1","7","0.9","70","1","false","","","","","","","","","","","","","","",""
"","html-keyboard-response","197","703829","0.0-2.0-6.0-2.0-13.0","null","<p style=""color: black"">9</p>","null","feedback","","","","","","","","","","","","","","","","","","","","","","",""
"","html-keyboard-response","198","704133","0.0-2.0-6.0-2.0-14.0","null"," ","null","ITI","","","","","","","","","","","","","","","","","","","","","","",""
"","categorize-html","199","705660","0.0-2.0-6.0-2.0-15.0","null","<p style=""color: green"" >3</p>","null","n-switch","false","true","2","2","0.9","75","1","false","","","","","","","","","","","","","","",""
"","html-keyboard-response","200","705668","0.0-2.0-6.0-2.0-16.0","null","<p style=""color: black"">3</p>","null","feedback","","","","","","","","","","","","","","","","","","","","","","",""
"","html-keyboard-response","201","705986","0.0-2.0-6.0-2.0-17.0","null"," ","null","ITI","","","","","","","","","","","","","","","","","","","","","","",""
"","categorize-html","202","706686","0.0-2.0-6.0-2.0-18.0","694.2200000048615","<p style=""color: green"" >2</p>","65","n-switch","false","false","2","1","0.9","72","1","false","","","","","","","","","","","","","","",""
"","html-keyboard-response","203","707498","0.0-2.0-6.0-2.0-19.0","null","<p style=""color: black"">2</p>","null","feedback","","","","","","","","","","","","","","","","","","","","","","",""
"","html-keyboard-response","204","707808","0.0-2.0-6.0-2.0-20.0","null"," ","null","ITI","","","","","","","","","","","","","","","","","","","","","","",""
"","categorize-html","205","708515","0.0-2.0-6.0-2.0-21.0","704.280000005383","<p style=""color: green"" >6</p>","68","n-switch","false","false","2","4","0.9","72","1","false","","","","","","","","","","","","","","",""
"","html-keyboard-response","206","709321","0.0-2.0-6.0-2.0-22.0","null","<p style=""color: black"">6</p>","null","feedback","","","","","","","","","","","","","","","","","","","","","","",""
"","html-keyboard-response","207","709636","0.0-2.0-6.0-2.0-23.0","null"," ","null","ITI","","","","","","","","","","","","","","","","","","","","","","",""
"","categorize-html","208","711136","0.0-2.0-6.0-2.0-24.0","1497.0150000008289","<p style=""color: blue"" >8</p>","74","n-switch","false","true","1","6","0.9","70","1","false","","","","","","","","","","","","","","",""
"","html-keyboard-response","209","711140","0.0-2.0-6.0-2.0-25.0","null","<p style=""color: black"">8</p>","null","feedback","","","","","","","","","","","","","","","","","","","","","","",""
"","html-keyboard-response","210","711458","0.0-2.0-6.0-2.0-26.0","null"," ","null","ITI","","","","","","","","","","","","","","","","","","","","","","",""
"","categorize-html","211","712837","0.0-2.0-6.0-2.0-27.0","1374.9799999932293","<p style=""color: green"" >3</p>","65","n-switch","false","true","2","2","0.9","75","1","false","","","","","","","","","","","","","","",""
"","html-keyboard-response","212","712976","0.0-2.0-6.0-2.0-28.0","null","<p style=""color: black"">3</p>","null","feedback","","","","","","","","","","","","","","","","","","","","","","",""
"","html-keyboard-response","213","713278","0.0-2.0-6.0-2.0-29.0","null"," ","null","ITI","","","","","","","","","","","","","","","","","","","","","","",""
"","categorize-html","214","714222","0.0-2.0-6.0-2.0-30.0","940.0000000023283","<p style=""color: green"" >7</p>","68","n-switch","false","false","2","5","0.9","75","1","false","","","","","","","","","","","","","","",""
"","html-keyboard-response","215","714797","0.0-2.0-6.0-2.0-31.0","null","<p style=""color: black"">7</p>","null","feedback","","","","","","","","","","","","","","","","","","","","","","",""
"","html-keyboard-response","216","715102","0.0-2.0-6.0-2.0-32.0","null"," ","null","ITI","","","","","","","","","","","","","","","","","","","","","","",""
"","categorize-html","217","715938","0.0-2.0-6.0-2.0-33.0","833.2499999960419","<p style=""color: blue"" >4</p>","74","n-switch","false","true","1","3","0.9","83","1","false","","","","","","","","","","","","","","",""
"","html-keyboard-response","218","716614","0.0-2.0-6.0-2.0-34.0","null","<p style=""color: black"">4</p>","null","feedback","","","","","","","","","","","","","","","","","","","","","","",""
"","html-keyboard-response","219","716920","0.0-2.0-6.0-2.0-35.0","null"," ","null","ITI","","","","","","","","","","","","","","","","","","","","","","",""
"","categorize-html","220","718309","0.0-2.0-6.0-2.0-36.0","1386.3000000128523","<p style=""color: green"" >9</p>","65","n-switch","false","true","2","7","0.9","75","1","false","","","","","","","","","","","","","","",""
"","html-keyboard-response","221","718431","0.0-2.0-6.0-2.0-37.0","null","<p style=""color: black"">9</p>","null","feedback","","","","","","","","","","","","","","","","","","","","","","",""
"","html-keyboard-response","222","718739","0.0-2.0-6.0-2.0-38.0","6.504999997559935"," ","68","ITI","","","","","","","","","","","","","","","","","","","","","","",""
"","categorize-html","223","720188","0.0-2.0-6.0-2.0-39.0","1445.339999976568","<p style=""color: blue"" >1</p>","76","n-switch","false","true","1","0","0.9","83","1","false","","","","","","","","","","","","","","",""
"","html-keyboard-response","224","720245","0.0-2.0-6.0-2.0-40.0","null","<p style=""color: black"">1</p>","null","feedback","","","","","","","","","","","","","","","","","","","","","","",""
"","html-keyboard-response","225","720560","0.0-2.0-6.0-2.0-41.0","null"," ","null","ITI","","","","","","","","","","","","","","","","","","","","","","",""
"","categorize-html","226","721657","0.0-2.0-6.0-2.0-42.0","1093.1449999916367","<p style=""color: green"" >9</p>","68","n-switch","false","true","2","7","0.9","75","1","false","","","","","","","","","","","","","","",""
"","html-keyboard-response","227","722068","0.0-2.0-6.0-2.0-43.0","null","<p style=""color: black"">9</p>","null","feedback","","","","","","","","","","","","","","","","","","","","","","",""
"","html-keyboard-response","228","722377","0.0-2.0-6.0-2.0-44.0","null"," ","null","ITI","","","","","","","","","","","","","","","","","","","","","","",""
"","html-keyboard-response","229","729432","0.0-2.0-6.0-3.0","7052.529999986291","<p>You were not accurate enough. You earned 0 points.</p> </p><p>Press the space bar to continue. </p>","32","debrief","","","","","","","","","","","","","","","","","","","","","","",""
"","html-slider-response","230","743296","0.0-2.0-8.0-0.0","13860.160000011092","<img src=""./static/img/fractal4.png"" width=""250"" height=""250""","","BDM","","","","","","","2","","","","16","","3","12.42753853594547","","","","","","","","",""
"","html-keyboard-response","231","747036","0.0-2.0-9.0-0.0","3738.710000005085","<p style='font-size':25px> You want <strong> 1.64 </strong> points. </p> <p> The computer offers <strong>4.60</strong> points. </p><p> You will be given 4.60 points if you achieve at least 80% accuracy on this task. </p><img src=""./static/img/fractal4.png"" width=""250"" height=""250"" location='center'></img><p>[Press the space bar to continue.]</p>","32","","","","","","","","","","","","","","","","","","","","","","","",""
"","html-keyboard-response","232","747141","0.0-2.0-10.0-0.0","null","+","null","","","","","","","","","","","","","","","","","","","","","","","",""
"","html-keyboard-response","233","762895","0.0-2.0-10.0-1.0-0.0","15752.135000017006","<p>In this task, you will need to follow different rules depending on the color of the numbers on screen.</p><p style=""color: blue"">If the number is blue, you will need to respond to its magnitude (less than or greater than 5?).</p><p style=""color: green"">If the number is green, you will need to respond to its parity (even or odd?).</p><p>[Press the space bar to continue.]</p>","32","instructions","","","","","","","","","","","","","","","","","","","","","","",""
"","categorize-html","234","764366","0.0-2.0-10.0-2.0-0.0","1466.8149999924935","<p style=""color: green"" >1</p>","76","n-switch","false","true","2","0","0.9","75","2","false","","","","","","","","","","","","","","",""
"","html-keyboard-response","235","764404","0.0-2.0-10.0-2.0-1.0","null","<p style=""color: black"">1</p>","null","feedback","","","","","","","","","","","","","","","","","","","","","","",""
"","html-keyboard-response","236","764722","0.0-2.0-10.0-2.0-2.0","null"," ","null","ITI","","","","","","","","","","","","","","","","","","","","","","",""
"","categorize-html","237","765774","0.0-2.0-10.0-2.0-3.0","1047.984999982873","<p style=""color: blue"" >6</p>","76","n-switch","false","true","1","4","0.9","70","2","false","","","","","","","","","","","","","","",""
"","html-keyboard-response","238","766250","0.0-2.0-10.0-2.0-4.0","null","<p style=""color: black"">6</p>","null","feedback","","","","","","","","","","","","","","","","","","","","","","",""
"","html-keyboard-response","239","766560","0.0-2.0-10.0-2.0-5.0","null"," ","null","ITI","","","","","","","","","","","","","","","","","","","","","","",""
"","categorize-html","240","767443","0.0-2.0-10.0-2.0-6.0","878.4800000139512","<p style=""color: green"" >7</p>","76","n-switch","false","true","2","5","0.9","75","2","false","","","","","","","","","","","","","","",""
"","html-keyboard-response","241","768067","0.0-2.0-10.0-2.0-7.0","null","<p style=""color: black"">7</p>","null","feedback","","","","","","","","","","","","","","","","","","","","","","",""
"","html-keyboard-response","242","768380","0.0-2.0-10.0-2.0-8.0","null"," ","null","ITI","","","","","","","","","","","","","","","","","","","","","","",""
"","categorize-html","243","769505","0.0-2.0-10.0-2.0-9.0","1122.1849999856204","<p style=""color: blue"" >6</p>","68","n-switch","false","true","1","4","0.9","70","2","false","","","","","","","","","","","","","","",""
"","html-keyboard-response","244","769899","0.0-2.0-10.0-2.0-10.0","null","<p style=""color: black"">6</p>","null","feedback","","","","","","","","","","","","","","","","","","","","","","",""
"","html-keyboard-response","245","770207","0.0-2.0-10.0-2.0-11.0","null"," ","null","ITI","","","","","","","","","","","","","","","","","","","","","","",""
"","categorize-html","246","771303","0.0-2.0-10.0-2.0-12.0","1092.6050000125542","<p style=""color: green"" >4</p>","74","n-switch","false","true","2","3","0.9","72","2","false","","","","","","","","","","","","","","",""
"","html-keyboard-response","247","771716","0.0-2.0-10.0-2.0-13.0","null","<p style=""color: black"">4</p>","null","feedback","","","","","","","","","","","","","","","","","","","","","","",""
"","html-keyboard-response","248","772019","0.0-2.0-10.0-2.0-14.0","null"," ","null","ITI","","","","","","","","","","","","","","","","","","","","","","",""
"","categorize-html","249","773199","0.0-2.0-10.0-2.0-15.0","1173.240000003716","<p style=""color: blue"" >3</p>","65","n-switch","false","true","1","2","0.9","83","2","false","","","","","","","","","","","","","","",""
"","html-keyboard-response","250","773533","0.0-2.0-10.0-2.0-16.0","null","<p style=""color: black"">3</p>","null","feedback","","","","","","","","","","","","","","","","","","","","","","",""
"","html-keyboard-response","251","773844","0.0-2.0-10.0-2.0-17.0","null"," ","null","ITI","","","","","","","","","","","","","","","","","","","","","","",""
"","categorize-html","252","774822","0.0-2.0-10.0-2.0-18.0","974.5899999979883","<p style=""color: green"" >8</p>","74","n-switch","false","true","2","6","0.9","72","2","false","","","","","","","","","","","","","","",""
"","html-keyboard-response","253","775352","0.0-2.0-10.0-2.0-19.0","null","<p style=""color: black"">8</p>","null","feedback","","","","","","","","","","","","","","","","","","","","","","",""
"","html-keyboard-response","254","775662","0.0-2.0-10.0-2.0-20.0","null"," ","null","ITI","","","","","","","","","","","","","","","","","","","","","","",""
"","categorize-html","255","776807","0.0-2.0-10.0-2.0-21.0","1140.8600000140723","<p style=""color: blue"" >4</p>","65","n-switch","false","true","1","3","0.9","83","2","false","","","","","","","","","","","","","","",""
"","html-keyboard-response","256","777170","0.0-2.0-10.0-2.0-22.0","null","<p style=""color: black"">4</p>","null","feedback","","","","","","","","","","","","","","","","","","","","","","",""
"","html-keyboard-response","257","777475","0.0-2.0-10.0-2.0-23.0","null"," ","null","ITI","","","","","","","","","","","","","","","","","","","","","","",""
"","categorize-html","258","778380","0.0-2.0-10.0-2.0-24.0","899.4200000015553","<p style=""color: green"" >1</p>","76","n-switch","false","true","2","0","0.9","75","2","false","","","","","","","","","","","","","","",""
"","html-keyboard-response","259","779001","0.0-2.0-10.0-2.0-25.0","null","<p style=""color: black"">1</p>","null","feedback","","","","","","","","","","","","","","","","","","","","","","",""
"","html-keyboard-response","260","779305","0.0-2.0-10.0-2.0-26.0","null"," ","null","ITI","","","","","","","","","","","","","","","","","","","","","","",""
"","categorize-html","261","780387","0.0-2.0-10.0-2.0-27.0","1078.414999996312","<p style=""color: green"" >8</p>","74","n-switch","false","false","2","6","0.9","72","2","false","","","","","","","","","","","","","","",""
"","html-keyboard-response","262","780815","0.0-2.0-10.0-2.0-28.0","null","<p style=""color: black"">8</p>","null","feedback","","","","","","","","","","","","","","","","","","","","","","",""
"","html-keyboard-response","263","781118","0.0-2.0-10.0-2.0-29.0","null"," ","null","ITI","","","","","","","","","","","","","","","","","","","","","","",""
"","categorize-html","264","782491","0.0-2.0-10.0-2.0-30.0","1368.7800000188872","<p style=""color: blue"" >4</p>","65","n-switch","false","true","1","3","0.9","83","2","false","","","","","","","","","","","","","","",""
"","html-keyboard-response","265","782628","0.0-2.0-10.0-2.0-31.0","null","<p style=""color: black"">4</p>","null","feedback","","","","","","","","","","","","","","","","","","","","","","",""
"","html-keyboard-response","266","782939","0.0-2.0-10.0-2.0-32.0","null"," ","null","ITI","","","","","","","","","","","","","","","","","","","","","","",""
"","categorize-html","267","784212","0.0-2.0-10.0-2.0-33.0","1262.4800000048708","<p style=""color: green"" >9</p>","76","n-switch","false","true","2","7","0.9","75","2","false","","","","","","","","","","","","","","",""
"","html-keyboard-response","268","784458","0.0-2.0-10.0-2.0-34.0","null","<p style=""color: black"">9</p>","null","feedback","","","","","","","","","","","","","","","","","","","","","","",""
"","html-keyboard-response","269","784775","0.0-2.0-10.0-2.0-35.0","null"," ","null","ITI","","","","","","","","","","","","","","","","","","","","","","",""
"","categorize-html","270","785639","0.0-2.0-10.0-2.0-36.0","860.2299999911338","<p style=""color: blue"" >3</p>","65","n-switch","false","true","1","2","0.9","83","2","false","","","","","","","","","","","","","","",""
"","html-keyboard-response","271","786284","0.0-2.0-10.0-2.0-37.0","null","<p style=""color: black"">3</p>","null","feedback","","","","","","","","","","","","","","","","","","","","","","",""
"","html-keyboard-response","272","786591","0.0-2.0-10.0-2.0-38.0","null"," ","null","ITI","","","","","","","","","","","","","","","","","","","","","","",""
"","categorize-html","273","788119","0.0-2.0-10.0-2.0-39.0","null","<p style=""color: green"" >7</p>","null","n-switch","false","true","2","5","0.9","75","2","false","","","","","","","","","","","","","","",""
"","html-keyboard-response","274","788125","0.0-2.0-10.0-2.0-40.0","null","<p style=""color: black"">7</p>","null","feedback","","","","","","","","","","","","","","","","","","","","","","",""
"","html-keyboard-response","275","788429","0.0-2.0-10.0-2.0-41.0","108.79499997827224"," ","76","ITI","","","","","","","","","","","","","","","","","","","","","","",""
"","categorize-html","276","789950","0.0-2.0-10.0-2.0-42.0","null","<p style=""color: blue"" >9</p>","null","n-switch","false","true","1","7","0.9","70","2","false","","","","","","","","","","","","","","",""
"","html-keyboard-response","277","789958","0.0-2.0-10.0-2.0-43.0","null","<p style=""color: black"">9</p>","null","feedback","","","","","","","","","","","","","","","","","","","","","","",""
"","html-keyboard-response","278","790263","0.0-2.0-10.0-2.0-44.0","91.76000001025386"," ","68","ITI","","","","","","","","","","","","","","","","","","","","","","",""
"","html-keyboard-response","279","793065","0.0-2.0-10.0-3.0","2799.205000017537","<p>You were not accurate enough. You earned 0 points.</p> </p><p>Press the space bar to continue. </p>","32","debrief","","","","","","","","","","","","","","","","","","","","","","",""
"","html-slider-response","280","799851","0.0-2.0-12.0-0.0","6780.835000012303","<img src=""./static/img/fractal4.png"" width=""250"" height=""250""","","BDM","","","","","","","3","","","","72","","3","52.094873291306065","","","","","","","","",""
"","html-keyboard-response","281","805240","0.0-2.0-13.0-0.0","5386.289999994915","<p style='font-size':25px> You want <strong> 3.88 </strong> points. </p> <p> The computer offers <strong>2.40</strong> points. </p><p> You will do the following task instead to earn 1 point. </p> <img src=""./static/img/fractal4.png"" width=""250"" height=""250"" location='center'></img><p>[Press the space bar to continue.]</p>","32","","","","","","","","","","","","","","","","","","","","","","","",""
"","html-keyboard-response","282","805354","0.0-2.0-15.0-0.0","null","+","null","","","","","","","","","","","","","","","","","","","","","","","",""
"","html-keyboard-response","283","816357","0.0-2.0-15.0-1.0-0.0","11001.315000001341","<p>In this task, you will need to follow different rules depending on the color of the numbers on screen.</p><p style=""color: blue"">If the number is blue, you will need to respond to its parity (even or odd?).</p><p style=""color: green"">If the number is green, you will need to respond to its magnitude (less than or greater than 5?).</p><p>[Press the space bar to continue.]</p>","32","instructions","","","","","","","","","","","","","","","","","","","","","","",""
"","categorize-html","284","817601","0.0-2.0-15.0-2.0-0.0","1240.2299999957904","<p style=""color: green"" >7</p>","74","n-switch","false","false","2","5","0.1","75","3","false","","","","","","","","","","","","","","",""
"","html-keyboard-response","285","817865","0.0-2.0-15.0-2.0-1.0","null","<p style=""color: black"">7</p>","null","feedback","","","","","","","","","","","","","","","","","","","","","","",""
"","html-keyboard-response","286","818170","0.0-2.0-15.0-2.0-2.0","null"," ","null","ITI","","","","","","","","","","","","","","","","","","","","","","",""
"","categorize-html","287","819029","0.0-2.0-15.0-2.0-3.0","855.7950000104029","<p style=""color: green"" >9</p>","74","n-switch","false","false","2","7","0.1","75","3","false","","","","","","","","","","","","","","",""
"","html-keyboard-response","288","819693","0.0-2.0-15.0-2.0-4.0","null","<p style=""color: black"">9</p>","null","feedback","","","","","","","","","","","","","","","","","","","","","","",""
"","html-keyboard-response","289","819995","0.0-2.0-15.0-2.0-5.0","null"," ","null","ITI","","","","","","","","","","","","","","","","","","","","","","",""
"","categorize-html","290","820856","0.0-2.0-15.0-2.0-6.0","856.9199999910779","<p style=""color: green"" >8</p>","74","n-switch","false","false","2","6","0.1","72","3","false","","","","","","","","","","","","","","",""
"","html-keyboard-response","291","821504","0.0-2.0-15.0-2.0-7.0","null","<p style=""color: black"">8</p>","null","feedback","","","","","","","","","","","","","","","","","","","","","","",""
"","html-keyboard-response","292","821815","0.0-2.0-15.0-2.0-8.0","null"," ","null","ITI","","","","","","","","","","","","","","","","","","","","","","",""
"","categorize-html","293","822354","0.0-2.0-15.0-2.0-9.0","535.1750000263564","<p style=""color: green"" >9</p>","76","n-switch","false","false","2","7","0.1","75","3","false","","","","","","","","","","","","","","",""
"","html-keyboard-response","294","823328","0.0-2.0-15.0-2.0-10.0","null","<p style=""color: black"">9</p>","null","feedback","","","","","","","","","","","","","","","","","","","","","","",""
"","html-keyboard-response","295","823643","0.0-2.0-15.0-2.0-11.0","null"," ","null","ITI","","","","","","","","","","","","","","","","","","","","","","",""
"","categorize-html","296","824352","0.0-2.0-15.0-2.0-12.0","705.614999984391","<p style=""color: green"" >8</p>","74","n-switch","false","false","2","6","0.1","72","3","false","","","","","","","","","","","","","","",""
"","html-keyboard-response","297","825153","0.0-2.0-15.0-2.0-13.0","null","<p style=""color: black"">8</p>","null","feedback","","","","","","","","","","","","","","","","","","","","","","",""
"","html-keyboard-response","298","825465","0.0-2.0-15.0-2.0-14.0","null"," ","null","ITI","","","","","","","","","","","","","","","","","","","","","","",""
"","categorize-html","299","826076","0.0-2.0-15.0-2.0-15.0","607.4850000150036","<p style=""color: green"" >7</p>","76","n-switch","false","false","2","5","0.1","75","3","false","","","","","","","","","","","","","","",""
"","html-keyboard-response","300","826970","0.0-2.0-15.0-2.0-16.0","null","<p style=""color: black"">7</p>","null","feedback","","","","","","","","","","","","","","","","","","","","","","",""
"","html-keyboard-response","301","827275","0.0-2.0-15.0-2.0-17.0","null"," ","null","ITI","","","","","","","","","","","","","","","","","","","","","","",""
"","categorize-html","302","827922","0.0-2.0-15.0-2.0-18.0","643.4449999942444","<p style=""color: green"" >8</p>","74","n-switch","false","false","2","6","0.1","72","3","false","","","","","","","","","","","","","","",""
"","html-keyboard-response","303","828791","0.0-2.0-15.0-2.0-19.0","null","<p style=""color: black"">8</p>","null","feedback","","","","","","","","","","","","","","","","","","","","","","",""
"","html-keyboard-response","304","829097","0.0-2.0-15.0-2.0-20.0","null"," ","null","ITI","","","","","","","","","","","","","","","","","","","","","","",""
"","categorize-html","305","829987","0.0-2.0-15.0-2.0-21.0","886.2650000082795","<p style=""color: green"" >7</p>","76","n-switch","false","false","2","5","0.1","75","3","false","","","","","","","","","","","","","","",""
"","html-keyboard-response","306","830603","0.0-2.0-15.0-2.0-22.0","null","<p style=""color: black"">7</p>","null","feedback","","","","","","","","","","","","","","","","","","","","","","",""
"","html-keyboard-response","307","830912","0.0-2.0-15.0-2.0-23.0","null"," ","null","ITI","","","","","","","","","","","","","","","","","","","","","","",""
"","categorize-html","308","831755","0.0-2.0-15.0-2.0-24.0","839.9199999985285","<p style=""color: green"" >9</p>","76","n-switch","false","false","2","7","0.1","75","3","false","","","","","","","","","","","","","","",""
"","html-keyboard-response","309","832425","0.0-2.0-15.0-2.0-25.0","null","<p style=""color: black"">9</p>","null","feedback","","","","","","","","","","","","","","","","","","","","","","",""
"","html-keyboard-response","310","832728","0.0-2.0-15.0-2.0-26.0","null"," ","null","ITI","","","","","","","","","","","","","","","","","","","","","","",""
"","categorize-html","311","833303","0.0-2.0-15.0-2.0-27.0","566.1550000077114","<p style=""color: green"" >2</p>","74","n-switch","false","false","2","1","0.1","72","3","false","","","","","","","","","","","","","","",""
"","html-keyboard-response","312","834244","0.0-2.0-15.0-2.0-28.0","null","<p style=""color: black"">2</p>","null","feedback","","","","","","","","","","","","","","","","","","","","","","",""
"","html-keyboard-response","313","834546","0.0-2.0-15.0-2.0-29.0","null"," ","null","ITI","","","","","","","","","","","","","","","","","","","","","","",""
"","categorize-html","314","835480","0.0-2.0-15.0-2.0-30.0","925.8850000042003","<p style=""color: green"" >9</p>","76","n-switch","false","false","2","7","0.1","75","3","false","","","","","","","","","","","","","","",""
"","html-keyboard-response","315","836056","0.0-2.0-15.0-2.0-31.0","null","<p style=""color: black"">9</p>","null","feedback","","","","","","","","","","","","","","","","","","","","","","",""
"","html-keyboard-response","316","836361","0.0-2.0-15.0-2.0-32.0","null"," ","null","ITI","","","","","","","","","","","","","","","","","","","","","","",""
"","categorize-html","317","837068","0.0-2.0-15.0-2.0-33.0","698.9600000088103","<p style=""color: green"" >9</p>","76","n-switch","false","false","2","7","0.1","75","3","false","","","","","","","","","","","","","","",""
"","html-keyboard-response","318","837873","0.0-2.0-15.0-2.0-34.0","null","<p style=""color: black"">9</p>","null","feedback","","","","","","","","","","","","","","","","","","","","","","",""
"","html-keyboard-response","319","838177","0.0-2.0-15.0-2.0-35.0","null"," ","null","ITI","","","","","","","","","","","","","","","","","","","","","","",""
"","categorize-html","320","839016","0.0-2.0-15.0-2.0-36.0","830.9550000121817","<p style=""color: green"" >1</p>","76","n-switch","false","false","2","0","0.1","75","3","false","","","","","","","","","","","","","","",""
"","html-keyboard-response","321","839701","0.0-2.0-15.0-2.0-37.0","null","<p style=""color: black"">1</p>","null","feedback","","","","","","","","","","","","","","","","","","","","","","",""
"","html-keyboard-response","322","840004","0.0-2.0-15.0-2.0-38.0","null"," ","null","ITI","","","","","","","","","","","","","","","","","","","","","","",""
"","categorize-html","323","840650","0.0-2.0-15.0-2.0-39.0","638.2799999846611","<p style=""color: green"" >9</p>","76","n-switch","false","false","2","7","0.1","75","3","false","","","","","","","","","","","","","","",""
"","html-keyboard-response","324","841523","0.0-2.0-15.0-2.0-40.0","null","<p style=""color: black"">9</p>","null","feedback","","","","","","","","","","","","","","","","","","","","","","",""
"","html-keyboard-response","325","841834","0.0-2.0-15.0-2.0-41.0","null"," ","null","ITI","","","","","","","","","","","","","","","","","","","","","","",""
"","categorize-html","326","842712","0.0-2.0-15.0-2.0-42.0","870.070000004489","<p style=""color: green"" >6</p>","74","n-switch","false","false","2","4","0.1","72","3","false","","","","","","","","","","","","","","",""
"","html-keyboard-response","327","843351","0.0-2.0-15.0-2.0-43.0","null","<p style=""color: black"">6</p>","null","feedback","","","","","","","","","","","","","","","","","","","","","","",""
"","html-keyboard-response","328","843666","0.0-2.0-15.0-2.0-44.0","null"," ","null","ITI","","","","","","","","","","","","","","","","","","","","","","",""
"","html-keyboard-response","329","846483","0.0-2.0-15.0-3.0","2816.319999983534","<p>You were not accurate enough. You earned 0 points.</p> </p><p>Press the space bar to continue. </p>","32","debrief","","","","","","","","","","","","","","","","","","","","","","",""
"","html-slider-response","330","855855","0.0-2.0-16.0-0.0","9369.330000015907","<img src=""./static/img/fractal4.png"" width=""250"" height=""250""","","BDM","","","","","","","4","","","","64","","3","56.054162293143904","","","","","","","","",""
"","html-keyboard-response","331","862756","0.0-2.0-17.0-0.0","6899.24999998766","<p style='font-size':25px> You want <strong> 3.56 </strong> points. </p> <p> The computer offers <strong>3.56</strong> points. </p><p> You will be given 3.56 points if you achieve at least 80% accuracy on this task. </p><img src=""./static/img/fractal4.png"" width=""250"" height=""250"" location='center'></img><p>[Press the space bar to continue.]</p>","32","","","","","","","","","","","","","","","","","","","","","","","",""
"","html-keyboard-response","332","862861","0.0-2.0-18.0-0.0","null","+","null","","","","","","","","","","","","","","","","","","","","","","","",""
"","html-keyboard-response","333","868958","0.0-2.0-18.0-1.0-0.0","6096.079999988433","<p>In this task, you will need to follow different rules depending on the color of the numbers on screen.</p><p style=""color: blue"">If the number is blue, you will need to respond to its magnitude (less than or greater than 5?).</p><p style=""color: green"">If the number is green, you will need to respond to its parity (even or odd?).</p><p>[Press the space bar to continue.]</p>","32","instructions","","","","","","","","","","","","","","","","","","","","","","",""
"","categorize-html","334","869902","0.0-2.0-18.0-2.0-0.0","940.9699999960139","<p style=""color: green"" >6</p>","74","n-switch","false","true","2","4","0.9","72","4","false","","","","","","","","","","","","","","",""
"","html-keyboard-response","335","870466","0.0-2.0-18.0-2.0-1.0","null","<p style=""color: black"">6</p>","null","feedback","","","","","","","","","","","","","","","","","","","","","","",""
"","html-keyboard-response","336","870784","0.0-2.0-18.0-2.0-2.0","null"," ","null","ITI","","","","","","","","","","","","","","","","","","","","","","",""
"","categorize-html","337","871726","0.0-2.0-18.0-2.0-3.0","938.4850000205915","<p style=""color: blue"" >9</p>","68","n-switch","false","true","1","7","0.9","70","4","false","","","","","","","","","","","","","","",""
"","html-keyboard-response","338","872294","0.0-2.0-18.0-2.0-4.0","null","<p style=""color: black"">9</p>","null","feedback","","","","","","","","","","","","","","","","","","","","","","",""
"","html-keyboard-response","339","872598","0.0-2.0-18.0-2.0-5.0","null"," ","null","ITI","","","","","","","","","","","","","","","","","","","","","","",""
"","categorize-html","340","873242","0.0-2.0-18.0-2.0-6.0","640.4700000130106","<p style=""color: green"" >4</p>","74","n-switch","false","true","2","3","0.9","72","4","false","","","","","","","","","","","","","","",""
"","html-keyboard-response","341","874107","0.0-2.0-18.0-2.0-7.0","null","<p style=""color: black"">4</p>","null","feedback","","","","","","","","","","","","","","","","","","","","","","",""
"","html-keyboard-response","342","874425","0.0-2.0-18.0-2.0-8.0","null"," ","null","ITI","","","","","","","","","","","","","","","","","","","","","","",""
"","categorize-html","343","875582","0.0-2.0-18.0-2.0-9.0","1152.7399999904446","<p style=""color: blue"" >4</p>","65","n-switch","false","true","1","3","0.9","83","4","false","","","","","","","","","","","","","","",""
"","html-keyboard-response","344","875945","0.0-2.0-18.0-2.0-10.0","null","<p style=""color: black"">4</p>","null","feedback","","","","","","","","","","","","","","","","","","","","","","",""
"","html-keyboard-response","345","876257","0.0-2.0-18.0-2.0-11.0","null"," ","null","ITI","","","","","","","","","","","","","","","","","","","","","","",""
"","categorize-html","346","877270","0.0-2.0-18.0-2.0-12.0","1009.2700000095647","<p style=""color: green"" >9</p>","76","n-switch","false","true","2","7","0.9","75","4","false","","","","","","","","","","","","","","",""
"","html-keyboard-response","347","877763","0.0-2.0-18.0-2.0-13.0","null","<p style=""color: black"">9</p>","null","feedback","","","","","","","","","","","","","","","","","","","","","","",""
"","html-keyboard-response","348","878066","0.0-2.0-18.0-2.0-14.0","null"," ","null","ITI","","","","","","","","","","","","","","","","","","","","","","",""
"","categorize-html","349","879148","0.0-2.0-18.0-2.0-15.0","1078.4550000098534","<p style=""color: blue"" >2</p>","65","n-switch","false","true","1","1","0.9","83","4","false","","","","","","","","","","","","","","",""
"","html-keyboard-response","350","879585","0.0-2.0-18.0-2.0-16.0","null","<p style=""color: black"">2</p>","null","feedback","","","","","","","","","","","","","","","","","","","","","","",""
"","html-keyboard-response","351","879892","0.0-2.0-18.0-2.0-17.0","null"," ","null","ITI","","","","","","","","","","","","","","","","","","","","","","",""
"","categorize-html","352","880575","0.0-2.0-18.0-2.0-18.0","680.0199999997858","<p style=""color: green"" >4</p>","74","n-switch","false","true","2","3","0.9","72","4","false","","","","","","","","","","","","","","",""
"","html-keyboard-response","353","881396","0.0-2.0-18.0-2.0-19.0","null","<p style=""color: black"">4</p>","null","feedback","","","","","","","","","","","","","","","","","","","","","","",""
"","html-keyboard-response","354","881710","0.0-2.0-18.0-2.0-20.0","null"," ","null","ITI","","","","","","","","","","","","","","","","","","","","","","",""
"","categorize-html","355","882667","0.0-2.0-18.0-2.0-21.0","953.4400000120513","<p style=""color: blue"" >3</p>","65","n-switch","false","true","1","2","0.9","83","4","false","","","","","","","","","","","","","","",""
"","html-keyboard-response","356","883244","0.0-2.0-18.0-2.0-22.0","null","<p style=""color: black"">3</p>","null","feedback","","","","","","","","","","","","","","","","","","","","","","",""
"","html-keyboard-response","357","883559","0.0-2.0-18.0-2.0-23.0","null"," ","null","ITI","","","","","","","","","","","","","","","","","","","","","","",""
"","categorize-html","358","884396","0.0-2.0-18.0-2.0-24.0","831.609999993816","<p style=""color: green"" >8</p>","74","n-switch","false","true","2","6","0.9","72","4","false","","","","","","","","","","","","","","",""
"","html-keyboard-response","359","885071","0.0-2.0-18.0-2.0-25.0","null","<p style=""color: black"">8</p>","null","feedback","","","","","","","","","","","","","","","","","","","","","","",""
"","html-keyboard-response","360","885379","0.0-2.0-18.0-2.0-26.0","null"," ","null","ITI","","","","","","","","","","","","","","","","","","","","","","",""
"","categorize-html","361","886059","0.0-2.0-18.0-2.0-27.0","676.2700000253972","<p style=""color: green"" >6</p>","74","n-switch","false","false","2","4","0.9","72","4","false","","","","","","","","","","","","","","",""
"","html-keyboard-response","362","886901","0.0-2.0-18.0-2.0-28.0","null","<p style=""color: black"">6</p>","null","feedback","","","","","","","","","","","","","","","","","","","","","","",""
"","html-keyboard-response","363","887204","0.0-2.0-18.0-2.0-29.0","null"," ","null","ITI","","","","","","","","","","","","","","","","","","","","","","",""
"","categorize-html","364","888479","0.0-2.0-18.0-2.0-30.0","1270.0600000098348","<p style=""color: blue"" >6</p>","68","n-switch","false","true","1","4","0.9","70","4","false","","","","","","","","","","","","","","",""
"","html-keyboard-response","365","888711","0.0-2.0-18.0-2.0-31.0","null","<p style=""color: black"">6</p>","null","feedback","","","","","","","","","","","","","","","","","","","","","","",""
"","html-keyboard-response","366","889017","0.0-2.0-18.0-2.0-32.0","null"," ","null","ITI","","","","","","","","","","","","","","","","","","","","","","",""
"","categorize-html","367","889967","0.0-2.0-18.0-2.0-33.0","946.4649999863468","<p style=""color: green"" >4</p>","74","n-switch","false","true","2","3","0.9","72","4","false","","","","","","","","","","","","","","",""
"","html-keyboard-response","368","890532","0.0-2.0-18.0-2.0-34.0","null","<p style=""color: black"">4</p>","null","feedback","","","","","","","","","","","","","","","","","","","","","","",""
"","html-keyboard-response","369","890840","0.0-2.0-18.0-2.0-35.0","null"," ","null","ITI","","","","","","","","","","","","","","","","","","","","","","",""
"","categorize-html","370","891533","0.0-2.0-18.0-2.0-36.0","689.2550000047777","<p style=""color: blue"" >8</p>","68","n-switch","false","true","1","6","0.9","70","4","false","","","","","","","","","","","","","","",""
"","html-keyboard-response","371","892362","0.0-2.0-18.0-2.0-37.0","null","<p style=""color: black"">8</p>","null","feedback","","","","","","","","","","","","","","","","","","","","","","",""
"","html-keyboard-response","372","892680","0.0-2.0-18.0-2.0-38.0","null"," ","null","ITI","","","","","","","","","","","","","","","","","","","","","","",""
"","categorize-html","373","894082","0.0-2.0-18.0-2.0-39.0","1398.0849999934435","<p style=""color: green"" >9</p>","76","n-switch","false","true","2","7","0.9","75","4","false","","","","","","","","","","","","","","",""
"","html-keyboard-response","374","894186","0.0-2.0-18.0-2.0-40.0","null","<p style=""color: black"">9</p>","null","feedback","","","","","","","","","","","","","","","","","","","","","","",""
"","html-keyboard-response","375","894496","0.0-2.0-18.0-2.0-41.0","null"," ","null","ITI","","","","","","","","","","","","","","","","","","","","","","",""
"","categorize-html","376","895714","0.0-2.0-18.0-2.0-42.0","1214.3450000148732","<p style=""color: blue"" >1</p>","65","n-switch","false","true","1","0","0.9","83","4","false","","","","","","","","","","","","","","",""
"","html-keyboard-response","377","896008","0.0-2.0-18.0-2.0-43.0","null","<p style=""color: black"">1</p>","null","feedback","","","","","","","","","","","","","","","","","","","","","","",""
"","html-keyboard-response","378","896312","0.0-2.0-18.0-2.0-44.0","null"," ","null","ITI","","","","","","","","","","","","","","","","","","","","","","",""
"","html-keyboard-response","379","902430","0.0-2.0-18.0-3.0","6113.36499999743","<p>You were not accurate enough. You earned 0 points.</p> </p><p>Press the space bar to continue. </p>","32","debrief","","","","","","","","","","","","","","","","","","","","","","",""
"","html-slider-response","380","907617","0.0-2.0-20.0-0.0","5181.864999991376","<img src=""./static/img/fractal4.png"" width=""250"" height=""250""","","BDM","","","","","","","5","","","","68","","3","24.14849438519644","","","","","","","","",""
"","html-keyboard-response","381","912071","0.0-2.0-21.0-0.0","4451.115000003483","<p style='font-size':25px> You want <strong> 3.72 </strong> points. </p> <p> The computer offers <strong>3.08</strong> points. </p><p> You will do the following task instead to earn 1 point. </p> <img src=""./static/img/fractal4.png"" width=""250"" height=""250"" location='center'></img><p>[Press the space bar to continue.]</p>","32","","","","","","","","","","","","","","","","","","","","","","","",""
"","html-keyboard-response","382","912178","0.0-2.0-23.0-0.0","null","+","null","","","","","","","","","","","","","","","","","","","","","","","",""
"","html-keyboard-response","383","942185","0.0-2.0-23.0-1.0-0.0","null","<p>In this task, you will need to follow different rules depending on the color of the numbers on screen.</p><p style=""color: blue"">If the number is blue, you will need to respond to its magnitude (less than or greater than 5?).</p><p style=""color: green"">If the number is green, you will need to respond to its parity (even or odd?).</p><p>[Press the space bar to continue.]</p>","null","instructions","","","","","","","","","","","","","","","","","","","","","","",""
"","categorize-html","384","943704","0.0-2.0-23.0-2.0-0.0","null","<p style=""color: green"" >7</p>","null","n-switch","false","false","2","5","0.1","75","5","false","","","","","","","","","","","","","","",""
"","html-keyboard-response","385","943712","0.0-2.0-23.0-2.0-1.0","null","<p style=""color: black"">7</p>","null","feedback","","","","","","","","","","","","","","","","","","","","","","",""
"","html-keyboard-response","386","944015","0.0-2.0-23.0-2.0-2.0","33.15999999176711"," ","76","ITI","","","","","","","","","","","","","","","","","","","","","","",""
"","categorize-html","387","944707","0.0-2.0-23.0-2.0-3.0","687.1450000035111","<p style=""color: green"" >6</p>","74","n-switch","false","false","2","4","0.1","72","5","false","","","","","","","","","","","","","","",""
"","html-keyboard-response","388","945533","0.0-2.0-23.0-2.0-4.0","null","<p style=""color: black"">6</p>","null","feedback","","","","","","","","","","","","","","","","","","","","","","",""
"","html-keyboard-response","389","945841","0.0-2.0-23.0-2.0-5.0","null"," ","null","ITI","","","","","","","","","","","","","","","","","","","","","","",""
"","categorize-html","390","947358","0.0-2.0-23.0-2.0-6.0","null","<p style=""color: green"" >6</p>","null","n-switch","false","false","2","4","0.1","72","5","false","","","","","","","","","","","","","","",""
"","html-keyboard-response","391","947369","0.0-2.0-23.0-2.0-7.0","null","<p style=""color: black"">6</p>","null","feedback","","","","","","","","","","","","","","","","","","","","","","",""
"","html-keyboard-response","392","947675","0.0-2.0-23.0-2.0-8.0","null"," ","null","ITI","","","","","","","","","","","","","","","","","","","","","","",""
"","categorize-html","393","949188","0.0-2.0-23.0-2.0-9.0","null","<p style=""color: green"" >9</p>","null","n-switch","false","false","2","7","0.1","75","5","false","","","","","","","","","","","","","","",""
"","html-keyboard-response","394","949195","0.0-2.0-23.0-2.0-10.0","null","<p style=""color: black"">9</p>","null","feedback","","","","","","","","","","","","","","","","","","","","","","",""
"","html-keyboard-response","395","949500","0.0-2.0-23.0-2.0-11.0","null"," ","null","ITI","","","","","","","","","","","","","","","","","","","","","","",""
"","categorize-html","396","951011","0.0-2.0-23.0-2.0-12.0","null","<p style=""color: blue"" >9</p>","null","n-switch","false","true","1","7","0.1","70","5","false","","","","","","","","","","","","","","",""
"","html-keyboard-response","397","951023","0.0-2.0-23.0-2.0-13.0","null","<p style=""color: black"">9</p>","null","feedback","","","","","","","","","","","","","","","","","","","","","","",""
"","html-keyboard-response","398","951327","0.0-2.0-23.0-2.0-14.0","null"," ","null","ITI","","","","","","","","","","","","","","","","","","","","","","",""
"","categorize-html","399","952845","0.0-2.0-23.0-2.0-15.0","null","<p style=""color: blue"" >2</p>","null","n-switch","false","false","1","1","0.1","83","5","false","","","","","","","","","","","","","","",""
"","html-keyboard-response","400","952851","0.0-2.0-23.0-2.0-16.0","null","<p style=""color: black"">2</p>","null","feedback","","","","","","","","","","","","","","","","","","","","","","",""
"","html-keyboard-response","401","953154","0.0-2.0-23.0-2.0-17.0","null"," ","null","ITI","","","","","","","","","","","","","","","","","","","","","","",""
"","categorize-html","402","954390","0.0-2.0-23.0-2.0-18.0","1232.5999999884516","<p style=""color: blue"" >1</p>","75","n-switch","false","false","1","0","0.1","83","5","false","","","","","","","","","","","","","","",""
"","html-keyboard-response","403","954660","0.0-2.0-23.0-2.0-19.0","null","<p style=""color: black"">1</p>","null","feedback","","","","","","","","","","","","","","","","","","","","","","",""
"","html-keyboard-response","404","954986","0.0-2.0-23.0-2.0-20.0","null"," ","null","ITI","","","","","","","","","","","","","","","","","","","","","","",""
"","categorize-html","405","955688","0.0-2.0-23.0-2.0-21.0","695.2949999831617","<p style=""color: blue"" >3</p>","65","n-switch","false","false","1","2","0.1","83","5","false","","","","","","","","","","","","","","",""
"","html-keyboard-response","406","956496","0.0-2.0-23.0-2.0-22.0","null","<p style=""color: black"">3</p>","null","feedback","","","","","","","","","","","","","","","","","","","","","","",""
"","html-keyboard-response","407","956799","0.0-2.0-23.0-2.0-23.0","null"," ","null","ITI","","","","","","","","","","","","","","","","","","","","","","",""
"","categorize-html","408","957906","0.0-2.0-23.0-2.0-24.0","1097.974999982398","<p style=""color: green"" >2</p>","72","n-switch","true","true","2","1","0.1","72","5","false","","","","","","","","","","","","","","",""
"","html-keyboard-response","409","958318","0.0-2.0-23.0-2.0-25.0","null","<p style=""color: black"">2</p>","null","feedback","","","","","","","","","","","","","","","","","","","","","","",""
"","html-keyboard-response","410","958622","0.0-2.0-23.0-2.0-26.0","null"," ","null","ITI","","","","","","","","","","","","","","","","","","","","","","",""
"","categorize-html","411","959443","0.0-2.0-23.0-2.0-27.0","818.2249999954365","<p style=""color: green"" >9</p>","75","n-switch","true","false","2","7","0.1","75","5","false","","","","","","","","","","","","","","",""
"","html-keyboard-response","412","960128","0.0-2.0-23.0-2.0-28.0","null","<p style=""color: black"">9</p>","null","feedback","","","","","","","","","","","","","","","","","","","","","","",""
"","html-keyboard-response","413","960437","0.0-2.0-23.0-2.0-29.0","null"," ","null","ITI","","","","","","","","","","","","","","","","","","","","","","",""
"","categorize-html","414","961338","0.0-2.0-23.0-2.0-30.0","897.5449999852572","<p style=""color: green"" >3</p>","75","n-switch","true","false","2","2","0.1","75","5","false","","","","","","","","","","","","","","",""
"","html-keyboard-response","415","961957","0.0-2.0-23.0-2.0-31.0","null","<p style=""color: black"">3</p>","null","feedback","","","","","","","","","","","","","","","","","","","","","","",""
"","html-keyboard-response","416","962271","0.0-2.0-23.0-2.0-32.0","null"," ","null","ITI","","","","","","","","","","","","","","","","","","","","","","",""
"","categorize-html","417","962823","0.0-2.0-23.0-2.0-33.0","548.0099999986123","<p style=""color: green"" >8</p>","72","n-switch","true","false","2","6","0.1","72","5","false","","","","","","","","","","","","","","",""
"","html-keyboard-response","418","963787","0.0-2.0-23.0-2.0-34.0","null","<p style=""color: black"">8</p>","null","feedback","","","","","","","","","","","","","","","","","","","","","","",""
"","html-keyboard-response","419","964092","0.0-2.0-23.0-2.0-35.0","null"," ","null","ITI","","","","","","","","","","","","","","","","","","","","","","",""
"","categorize-html","420","964870","0.0-2.0-23.0-2.0-36.0","774.730000004638","<p style=""color: blue"" >4</p>","65","n-switch","false","true","1","3","0.1","83","5","false","","","","","","","","","","","","","","",""
"","html-keyboard-response","421","965616","0.0-2.0-23.0-2.0-37.0","null","<p style=""color: black"">4</p>","null","feedback","","","","","","","","","","","","","","","","","","","","","","",""
"","html-keyboard-response","422","965924","0.0-2.0-23.0-2.0-38.0","null"," ","null","ITI","","","","","","","","","","","","","","","","","","","","","","",""
"","categorize-html","423","966787","0.0-2.0-23.0-2.0-39.0","860.0049999949988","<p style=""color: blue"" >3</p>","65","n-switch","false","false","1","2","0.1","83","5","false","","","","","","","","","","","","","","",""
"","html-keyboard-response","424","967431","0.0-2.0-23.0-2.0-40.0","null","<p style=""color: black"">3</p>","null","feedback","","","","","","","","","","","","","","","","","","","","","","",""
"","html-keyboard-response","425","967734","0.0-2.0-23.0-2.0-41.0","null"," ","null","ITI","","","","","","","","","","","","","","","","","","","","","","",""
"","categorize-html","426","968600","0.0-2.0-23.0-2.0-42.0","862.5649999885354","<p style=""color: blue"" >9</p>","68","n-switch","false","false","1","7","0.1","70","5","false","","","","","","","","","","","","","","",""
"","html-keyboard-response","427","969255","0.0-2.0-23.0-2.0-43.0","null","<p style=""color: black"">9</p>","null","feedback","","","","","","","","","","","","","","","","","","","","","","",""
"","html-keyboard-response","428","969560","0.0-2.0-23.0-2.0-44.0","null"," ","null","ITI","","","","","","","","","","","","","","","","","","","","","","",""
"","html-keyboard-response","429","970865","0.0-2.0-23.0-3.0","1303.3200000063516","<p>You were not accurate enough. You earned 0 points.</p> </p><p>Press the space bar to continue. </p>","32","debrief","","","","","","","","","","","","","","","","","","","","","","",""
