"success","trial_type","trial_index","time_elapsed","internal_node_id","rt","stimulus","key_press","task","correct","detect","correct_key","tasknum","practice_accuracy","practice","nback","n","response","BDMquizgrade","slider_start","stimnum","TOT","overall","performance_by_block","points_list","value_list","offer_list"
"true","fullscreen","0","71834","0.0-0.0","","","","","","","","","","","","","","","","","","","","","",""
"","html-keyboard-response","1","108473","0.0-1.0-0.0-0.0","36633.23500007391","<p>In this experiment, you'll complete up to 12 short rounds of two tasks.</p><p>If you are 80% correct or better during one round of a task, then you pass that round and earn bonus points for it. If you are less than 80% correct, you will not earn any points for that round.</p><p>You can earn 1 to 5 points each round.</p><p>Keep in mind that you should be about 80% accurate for up to 12 rounds.</p><p>At the end of the experiment, the points you earned will be added up and turned into a bonus payment. $$ The more points you earn, the more money you will be paid. $$</p><p>If we can tell that you are not paying attention, then this experiment will end early and you will earn a smaller payment. $$</p><p>[Press space to practice the first task.]</p>","32","instructions","","","","","","","","","","","","","","","","","",""
"","html-keyboard-response","2","115343","0.0-1.0-1.0-0.0-0.0","6869.000000180677","<img src=""./static/img/fractal2.png"" width=""250"" height=""250""","32","","","","","","","","","","","","","","","","","","",""
"","html-keyboard-response","3","130164","0.0-1.0-1.0-1.0-0.0","14819.575000088662","<p>In this task, you will need to press <strong>K</strong> every time you see the target letter <strong>T</strong>. </p><p>You must respond while the letter is on screen or your answer will not count.</p><p> Pay attention! If you are not at least 80% accurate, you will not earn points for completing this round.</p> <p>Press space to begin.</p>","32","instructions","","","","","","","","","","","","","","","","","",""
"","categorize-html","4","131673","0.0-1.0-1.0-2.0-0.0","null","<p>E</p>","null","detection","false","false","90","-1","","","","","","","","","","","","","",""
"","html-keyboard-response","5","132433","0.0-1.0-1.0-2.0-1.0","null"," ","null","feedback","","","","","","","","","","","","","","","","","",""
"","categorize-html","6","133947","0.0-1.0-1.0-2.0-2.0","null","<p>X</p>","null","detection","false","false","90","-1","","","","","","","","","","","","","",""
"","html-keyboard-response","7","134708","0.0-1.0-1.0-2.0-3.0","null"," ","null","feedback","","","","","","","","","","","","","","","","","",""
"","categorize-html","8","136231","0.0-1.0-1.0-2.0-4.0","null","<p>E</p>","null","detection","false","false","90","-1","","","","","","","","","","","","","",""
"","html-keyboard-response","9","136996","0.0-1.0-1.0-2.0-5.0","null"," ","null","feedback","","","","","","","","","","","","","","","","","",""
"","categorize-html","10","137383","0.0-1.0-1.0-2.0-6.0","383.4150000475347","<p>T</p>","75","detection","true","true","75","-1","","","","","","","","","","","","","",""
"","html-keyboard-response","11","138140","0.0-1.0-1.0-2.0-7.0","null","Correct!","null","feedback","","","","","","","","","","","","","","","","","",""
"","categorize-html","12","139648","0.0-1.0-1.0-2.0-8.0","null","<p>E</p>","null","detection","false","false","90","-1","","","","","","","","","","","","","",""
"","html-keyboard-response","13","140404","0.0-1.0-1.0-2.0-9.0","null"," ","null","feedback","","","","","","","","","","","","","","","","","",""
"","categorize-html","14","141918","0.0-1.0-1.0-2.0-10.0","null","<p>E</p>","null","detection","false","false","90","-1","","","","","","","","","","","","","",""
"","html-keyboard-response","15","142682","0.0-1.0-1.0-2.0-11.0","null"," ","null","feedback","","","","","","","","","","","","","","","","","",""
"","categorize-html","16","144203","0.0-1.0-1.0-2.0-12.0","null","<p>X</p>","null","detection","false","false","90","-1","","","","","","","","","","","","","",""
"","html-keyboard-response","17","144955","0.0-1.0-1.0-2.0-13.0","null"," ","null","feedback","","","","","","","","","","","","","","","","","",""
"","categorize-html","18","145421","0.0-1.0-1.0-2.0-14.0","462.5549998600036","<p>T</p>","75","detection","true","true","75","-1","","","","","","","","","","","","","",""
"","html-keyboard-response","19","146200","0.0-1.0-1.0-2.0-15.0","null","Correct!","null","feedback","","","","","","","","","","","","","","","","","",""
"","categorize-html","20","147721","0.0-1.0-1.0-2.0-16.0","null","<p>E</p>","null","detection","false","false","90","-1","","","","","","","","","","","","","",""
"","html-keyboard-response","21","148475","0.0-1.0-1.0-2.0-17.0","null"," ","null","feedback","","","","","","","","","","","","","","","","","",""
"","categorize-html","22","149991","0.0-1.0-1.0-2.0-18.0","null","<p>X</p>","null","detection","false","false","90","-1","","","","","","","","","","","","","",""
"","html-keyboard-response","23","150751","0.0-1.0-1.0-2.0-19.0","null"," ","null","feedback","","","","","","","","","","","","","","","","","",""
"","html-keyboard-response","24","159431","0.0-1.0-1.0-3.0","8675.584999844432","<p>Your accuracy was <strong>100.00%</strong>.</p><p>You will need to be at least 80% accurate to earn points in the real experiment.</p><p>In the real experiment, you will not receive the same feedback as during practice.</p><p>Press the space bar to continue. </p>","32","debrief","","","","","100.00","true","","","","","","","","","","","",""
"","html-keyboard-response","25","168629","0.0-1.0-2.0-0.0-0.0","9196.51999999769","<img src=""./static/img/fractal3.jpg"" width=""250"" height=""250""","32","","","","","","","","","","","","","","","","","","",""
"","html-keyboard-response","26","193305","0.0-1.0-2.0-1.0-0.0","24672.885000007227","<p>In this task, you will need to press <strong>H</strong> every time you see the same letter you saw <strong>1</strong> letters ago.</p> <p>If the letter on screen was not the one you saw <strong>1</strong> letters ago, do not press anything.</p><p>Pay attention! If you are not at least 80% accurate by the last practice game, you will not progress to the real experiment.</p><img src=./static/img/1-back.png><p>Press space to begin.</p>","32","","","","","","","","","","","","","","","","","","",""
"","categorize-html","27","194818","0.0-1.0-2.0-2.0-0.0","null","<p>E</p>","null","n-back","false","","90","-1","","true","false","1","","","","","","","","","",""
"","html-keyboard-response","28","195577","0.0-1.0-2.0-2.0-1.0","null"," ","null","feedback","","","","","","true","","","","","","","","","","","",""
"","categorize-html","29","196232","0.0-1.0-2.0-2.0-2.0","651.3499999418855","<p>E</p>","72","n-back","true","","72","-1","","true","true","1","","","","","","","","","",""
"","html-keyboard-response","30","196990","0.0-1.0-2.0-2.0-3.0","null","Correct!","null","feedback","","","","","","true","","","","","","","","","","","",""
"","categorize-html","31","198508","0.0-1.0-2.0-2.0-4.0","null","<p>E</p>","null","n-back","false","","72","-1","","true","true","1","","","","","","","","","",""
"","html-keyboard-response","32","199273","0.0-1.0-2.0-2.0-5.0","null","Press <strong>H</strong> when you see a match.","null","feedback","","","","","","true","","","","","","","","","","","",""
"","categorize-html","33","200791","0.0-1.0-2.0-2.0-6.0","null","<p>X</p>","null","n-back","false","","90","-1","","true","false","1","","","","","","","","","",""
"","html-keyboard-response","34","201559","0.0-1.0-2.0-2.0-7.0","null"," ","null","feedback","","","","","","true","","","","","","","","","","","",""
"","categorize-html","35","203074","0.0-1.0-2.0-2.0-8.0","null","<p>R</p>","null","n-back","false","","90","-1","","true","false","1","","","","","","","","","",""
"","html-keyboard-response","36","203831","0.0-1.0-2.0-2.0-9.0","null"," ","null","feedback","","","","","","true","","","","","","","","","","","",""
"","categorize-html","37","204284","0.0-1.0-2.0-2.0-10.0","450.2250000368804","<p>R</p>","72","n-back","true","","72","-1","","true","true","1","","","","","","","","","",""
"","html-keyboard-response","38","205038","0.0-1.0-2.0-2.0-11.0","null","Correct!","null","feedback","","","","","","true","","","","","","","","","","","",""
"","categorize-html","39","206544","0.0-1.0-2.0-2.0-12.0","null","<p>X</p>","null","n-back","false","","90","-1","","true","false","1","","","","","","","","","",""
"","html-keyboard-response","40","207305","0.0-1.0-2.0-2.0-13.0","null"," ","null","feedback","","","","","","true","","","","","","","","","","","",""
"","categorize-html","41","208824","0.0-1.0-2.0-2.0-14.0","null","<p>R</p>","null","n-back","false","","90","-1","","true","false","1","","","","","","","","","",""
"","html-keyboard-response","42","209583","0.0-1.0-2.0-2.0-15.0","null"," ","null","feedback","","","","","","true","","","","","","","","","","","",""
"","categorize-html","43","211098","0.0-1.0-2.0-2.0-16.0","null","<p>E</p>","null","n-back","false","","90","-1","","true","false","1","","","","","","","","","",""
"","html-keyboard-response","44","211871","0.0-1.0-2.0-2.0-17.0","null"," ","null","feedback","","","","","","true","","","","","","","","","","","",""
"","categorize-html","45","212394","0.0-1.0-2.0-2.0-18.0","519.5250001270324","<p>E</p>","72","n-back","true","","72","-1","","true","true","1","","","","","","","","","",""
"","html-keyboard-response","46","213156","0.0-1.0-2.0-2.0-19.0","null","Correct!","null","feedback","","","","","","true","","","","","","","","","","","",""
"","html-keyboard-response","47","219307","0.0-1.0-2.0-3.0","6149.010000051931","<p>Your accuracy was <strong>90.00%</strong>.</p><p>You will need to be at least 80% accurate during the study to earn points.</p><p>Please remember that you will not receive feedback like this during the real experiment.</p><p>Press the space bar to continue.</p>","32","","","","","","90.00","true","","","","","","","","","","","",""
"","html-keyboard-response","48","224402","0.0-1.0-3.0-0.0-0.0","5091.864999849349","<img src=""./static/img/fractal3.jpg"" width=""250"" height=""250""","32","","","","","","","","","","","","","","","","","","",""
"","html-keyboard-response","49","277316","0.0-1.0-3.0-1.0-0.0","52911.85500007123","<p>In this task, you will need to press <strong>H</strong> every time you see the same letter you saw <strong>2</strong> letters ago.</p> <p>If the letter on screen was not the one you saw <strong>2</strong> letters ago, do not press anything.</p><p>Pay attention! If you are not at least 80% accurate by the last practice game, you will not progress to the real experiment.</p><img src=./static/img/2-back.png><p>Press space to begin.</p>","32","","","","","","","","","","","","","","","","","","",""
"","categorize-html","50","278822","0.0-1.0-3.0-2.0-0.0","null","<p>E</p>","null","n-back","false","","90","-1","","true","false","2","","","","","","","","","",""
"","html-keyboard-response","51","279583","0.0-1.0-3.0-2.0-1.0","null"," ","null","feedback","","","","","","true","","","","","","","","","","","",""
"","categorize-html","52","281098","0.0-1.0-3.0-2.0-2.0","null","<p>R</p>","null","n-back","false","","90","-1","","true","false","2","","","","","","","","","",""
"","html-keyboard-response","53","281864","0.0-1.0-3.0-2.0-3.0","null"," ","null","feedback","","","","","","true","","","","","","","","","","","",""
"","categorize-html","54","282322","0.0-1.0-3.0-2.0-4.0","454.6149999368936","<p>E</p>","72","n-back","true","","72","-1","","true","true","2","","","","","","","","","",""
"","html-keyboard-response","55","283077","0.0-1.0-3.0-2.0-5.0","null","Correct!","null","feedback","","","","","","true","","","","","","","","","","","",""
"","categorize-html","56","284583","0.0-1.0-3.0-2.0-6.0","null","<p>R</p>","null","n-back","false","","72","-1","","true","true","2","","","","","","","","","",""
"","html-keyboard-response","57","285340","0.0-1.0-3.0-2.0-7.0","null","Press <strong>H</strong> when you see a match.","null","feedback","","","","","","true","","","","","","","","","","","",""
"","categorize-html","58","286870","0.0-1.0-3.0-2.0-8.0","null","<p>R</p>","null","n-back","false","","90","-1","","true","false","2","","","","","","","","","",""
"","html-keyboard-response","59","287631","0.0-1.0-3.0-2.0-9.0","359.35499984771013"," ","72","feedback","","","","","","true","","","","","","","","","","","",""
"","categorize-html","60","289151","0.0-1.0-3.0-2.0-10.0","null","<p>E</p>","null","n-back","false","","90","-1","","true","false","2","","","","","","","","","",""
"","html-keyboard-response","61","289907","0.0-1.0-3.0-2.0-11.0","null"," ","null","feedback","","","","","","true","","","","","","","","","","","",""
"","categorize-html","62","291430","0.0-1.0-3.0-2.0-12.0","null","<p>E</p>","null","n-back","false","","90","-1","","true","false","2","","","","","","","","","",""
"","html-keyboard-response","63","292196","0.0-1.0-3.0-2.0-13.0","null"," ","null","feedback","","","","","","true","","","","","","","","","","","",""
"","categorize-html","64","293716","0.0-1.0-3.0-2.0-14.0","null","<p>X</p>","null","n-back","false","","90","-1","","true","false","2","","","","","","","","","",""
"","html-keyboard-response","65","294479","0.0-1.0-3.0-2.0-15.0","null"," ","null","feedback","","","","","","true","","","","","","","","","","","",""
"","categorize-html","66","295599","0.0-1.0-3.0-2.0-16.0","1117.3150001559407","<p>E</p>","72","n-back","true","","72","-1","","true","true","2","","","","","","","","","",""
"","html-keyboard-response","67","296356","0.0-1.0-3.0-2.0-17.0","null","Correct!","null","feedback","","","","","","true","","","","","","","","","","","",""
"","categorize-html","68","297879","0.0-1.0-3.0-2.0-18.0","null","<p>E</p>","null","n-back","false","","90","-1","","true","false","2","","","","","","","","","",""
"","html-keyboard-response","69","298645","0.0-1.0-3.0-2.0-19.0","null"," ","null","feedback","","","","","","true","","","","","","","","","","","",""
"","html-keyboard-response","70","303524","0.0-1.0-3.0-3.0","4876.909999875352","<p>Your accuracy was <strong>90.00%</strong>.</p><p>You will need to be at least 80% accurate during the study to earn points.</p><p>Please remember that you will not receive feedback like this during the real experiment.</p><p>Press the space bar to continue.</p>","32","","","","","","90.00","true","","","","","","","","","","","",""
"","html-keyboard-response","71","309399","0.0-1.0-4.0-0.0-0.0","5873.420000076294","<img src=""./static/img/fractal3.jpg"" width=""250"" height=""250""","32","","","","","","","","","","","","","","","","","","",""
"","html-keyboard-response","72","320610","0.0-1.0-4.0-1.0-0.0","11209.26499995403","<p>In this task, you will need to press <strong>H</strong> every time you see the same letter you saw <strong>3</strong> letters ago.</p> <p>If the letter on screen was not the one you saw <strong>3</strong> letters ago, do not press anything.</p><p>Pay attention! If you are not at least 80% accurate by the last practice game, you will not progress to the real experiment.</p><img src=./static/img/3-back.png><p>Press space to begin.</p>","32","","","","","","","","","","","","","","","","","","",""
"","categorize-html","73","322124","0.0-1.0-4.0-2.0-0.0","null","<p>R</p>","null","n-back","false","","90","-1","","true","false","3","","","","","","","","","",""
"","html-keyboard-response","74","322886","0.0-1.0-4.0-2.0-1.0","null"," ","null","feedback","","","","","","true","","","","","","","","","","","",""
"","categorize-html","75","324404","0.0-1.0-4.0-2.0-2.0","null","<p>X</p>","null","n-back","false","","90","-1","","true","false","3","","","","","","","","","",""
"","html-keyboard-response","76","325159","0.0-1.0-4.0-2.0-3.0","null"," ","null","feedback","","","","","","true","","","","","","","","","","","",""
"","categorize-html","77","326679","0.0-1.0-4.0-2.0-4.0","null","<p>E</p>","null","n-back","false","","90","-1","","true","false","3","","","","","","","","","",""
"","html-keyboard-response","78","327432","0.0-1.0-4.0-2.0-5.0","null"," ","null","feedback","","","","","","true","","","","","","","","","","","",""
"","categorize-html","79","328001","0.0-1.0-4.0-2.0-6.0","566.3499999791384","<p>R</p>","72","n-back","true","","72","-1","","true","true","3","","","","","","","","","",""
"","html-keyboard-response","80","328756","0.0-1.0-4.0-2.0-7.0","null","Correct!","null","feedback","","","","","","true","","","","","","","","","","","",""
"","categorize-html","81","330262","0.0-1.0-4.0-2.0-8.0","null","<p>E</p>","null","n-back","false","","90","-1","","true","false","3","","","","","","","","","",""
"","html-keyboard-response","82","331021","0.0-1.0-4.0-2.0-9.0","null"," ","null","feedback","","","","","","true","","","","","","","","","","","",""
"","categorize-html","83","332552","0.0-1.0-4.0-2.0-10.0","null","<p>R</p>","null","n-back","false","","90","-1","","true","false","3","","","","","","","","","",""
"","html-keyboard-response","84","333322","0.0-1.0-4.0-2.0-11.0","null"," ","null","feedback","","","","","","true","","","","","","","","","","","",""
"","categorize-html","85","333668","0.0-1.0-4.0-2.0-12.0","342.7450000308454","<p>E</p>","72","n-back","false","","90","-1","","true","false","3","","","","","","","","","",""
"","html-keyboard-response","86","334446","0.0-1.0-4.0-2.0-13.0","null","Not a match! Press nothing.","null","feedback","","","","","","true","","","","","","","","","","","",""
"","categorize-html","87","335960","0.0-1.0-4.0-2.0-14.0","null","<p>E</p>","null","n-back","false","","72","-1","","true","true","3","","","","","","","","","",""
"","html-keyboard-response","88","336718","0.0-1.0-4.0-2.0-15.0","null","Press <strong>H</strong> when you see a match.","null","feedback","","","","","","true","","","","","","","","","","","",""
"","categorize-html","89","337196","0.0-1.0-4.0-2.0-16.0","474.65999983251095","<p>R</p>","72","n-back","true","","72","-1","","true","true","3","","","","","","","","","",""
"","html-keyboard-response","90","337965","0.0-1.0-4.0-2.0-17.0","null","Correct!","null","feedback","","","","","","true","","","","","","","","","","","",""
"","categorize-html","91","339481","0.0-1.0-4.0-2.0-18.0","null","<p>X</p>","null","n-back","false","","90","-1","","true","false","3","","","","","","","","","",""
"","html-keyboard-response","92","340235","0.0-1.0-4.0-2.0-19.0","null"," ","null","feedback","","","","","","true","","","","","","","","","","","",""
"","html-keyboard-response","93","347329","0.0-1.0-4.0-3.0","7092.094999970868","<p>Your accuracy was <strong>80.00%</strong>.</p><p>You will need to be at least 80% accurate during the study to earn points.</p><p>Please remember that you will not receive feedback like this during the real experiment.</p><p>Press the space bar to continue.</p>","32","","","","","","80.00","true","","","","","","","","","","","",""
"","html-keyboard-response","94","352530","0.0-1.0-5.0-0.0","5198.6750001087785","<p>Good job! You have reached 80% accuracy on this practice task. We will now move on.</p><p>[Press the space bar to continue.]</p>","32","instructions","","","","","100.00","","","","","","","","","","","","",""
"","html-keyboard-response","95","355881","0.0-1.0-7.0-0.0-0.0-0.0","3349.7750000096858","<img src=""./static/img/fractal1.jpg"" width=""250"" height=""250""","32","","","","","","","","","","","","","","","","","","",""
"","html-keyboard-response","96","397792","0.0-1.0-7.0-0.0-1.0-0.0","41908.02500001155","<p>This task is a combination of the two tasks you just practiced.</p><p>In this task, you will need to press <strong>H</strong> every time you see the same letter you saw 3 letters ago (we call this a ""3-back match"").</p> <p>If the letter on screen was not the one you saw 3 trials ago (not a ""3-back match""), do not press anything.</p><p>If you see a T, press <strong>K</strong> as fast as you can.</p><p>T's count in the sequence of letters for a 3-back match.</p><p>A T might be a 3-back match, but ignore that. Just press K when you see a T.</p><p>You will now be given six chances to practice this task until you are at least 80% accurate on it.</p><p>If you don't reach 80% accuracy in six attempts, you will not move on to the real experiment.</p><p>Press space to begin.</p>","32","","","","","","","","","","","","","","","","","","",""
"","categorize-html","97","399299","0.0-1.0-7.0-0.0-2.0-0.0","null","<p>E</p>","null","combine","false","false","90","-1","","true","0","3","","","","","","","","","",""
"","html-keyboard-response","98","400064","0.0-1.0-7.0-0.0-2.0-1.0","null"," ","null","feedback","","","","","","true","","","","","","","","","","","",""
"","categorize-html","99","401593","0.0-1.0-7.0-0.0-2.0-2.0","null","<p>R</p>","null","combine","false","false","90","-1","","true","0","3","","","","","","","","","",""
"","html-keyboard-response","100","402356","0.0-1.0-7.0-0.0-2.0-3.0","null"," ","null","feedback","","","","","","true","","","","","","","","","","","",""
"","categorize-html","101","403870","0.0-1.0-7.0-0.0-2.0-4.0","null","<p>E</p>","null","combine","false","false","90","-1","","true","0","3","","","","","","","","","",""
"","html-keyboard-response","102","404628","0.0-1.0-7.0-0.0-2.0-5.0","null"," ","null","feedback","","","","","","true","","","","","","","","","","","",""
"","categorize-html","103","406160","0.0-1.0-7.0-0.0-2.0-6.0","null","<p>R</p>","null","combine","false","false","90","-1","","true","0","3","","","","","","","","","",""
"","html-keyboard-response","104","406919","0.0-1.0-7.0-0.0-2.0-7.0","null"," ","null","feedback","","","","","","true","","","","","","","","","","","",""
"","categorize-html","105","408103","0.0-1.0-7.0-0.0-2.0-8.0","1180.9549999888986","<p>R</p>","72","combine","true","false","72","-1","","true","1","3","","","","","","","","","",""
"","html-keyboard-response","106","408869","0.0-1.0-7.0-0.0-2.0-9.0","null","Correct!","null","feedback","","","","","","true","","","","","","","","","","","",""
"","categorize-html","107","410375","0.0-1.0-7.0-0.0-2.0-10.0","null","<p>E</p>","null","combine","false","false","72","-1","","true","1","3","","","","","","","","","",""
"","html-keyboard-response","108","411128","0.0-1.0-7.0-0.0-2.0-11.0","null","Press <strong>H</strong> when you see a match.","null","feedback","","","","","","true","","","","","","","","","","","",""
"","categorize-html","109","411320","0.0-1.0-7.0-0.0-2.0-12.0","187.69000004976988","<p>R</p>","72","combine","true","false","72","-1","","true","1","3","","","","","","","","","",""
"","html-keyboard-response","110","412073","0.0-1.0-7.0-0.0-2.0-13.0","null","Correct!","null","feedback","","","","","","true","","","","","","","","","","","",""
"","categorize-html","111","413590","0.0-1.0-7.0-0.0-2.0-14.0","null","<p>E</p>","null","combine","false","false","90","-1","","true","0","3","","","","","","","","","",""
"","html-keyboard-response","112","414353","0.0-1.0-7.0-0.0-2.0-15.0","null"," ","null","feedback","","","","","","true","","","","","","","","","","","",""
"","categorize-html","113","415337","0.0-1.0-7.0-0.0-2.0-16.0","980.6999999564141","<p>E</p>","72","combine","true","false","72","-1","","true","1","3","","","","","","","","","",""
"","html-keyboard-response","114","416104","0.0-1.0-7.0-0.0-2.0-17.0","null","Correct!","null","feedback","","","","","","true","","","","","","","","","","","",""
"","categorize-html","115","417573","0.0-1.0-7.0-0.0-2.0-18.0","1466.4699998684227","<p>R</p>","72","combine","true","false","72","-1","","true","1","3","","","","","","","","","",""
"","html-keyboard-response","116","418330","0.0-1.0-7.0-0.0-2.0-19.0","null","Correct!","null","feedback","","","","","","true","","","","","","","","","","","",""
"","categorize-html","117","419837","0.0-1.0-7.0-0.0-2.0-20.0","null","<p>X</p>","null","combine","false","false","90","-1","","true","0","3","","","","","","","","","",""
"","html-keyboard-response","118","420596","0.0-1.0-7.0-0.0-2.0-21.0","null"," ","null","feedback","","","","","","true","","","","","","","","","","","",""
"","categorize-html","119","421483","0.0-1.0-7.0-0.0-2.0-22.0","884.4200000166893","<p>T</p>","75","combine","true","true","75","-1","","true","0","3","","","","","","","","","",""
"","html-keyboard-response","120","422253","0.0-1.0-7.0-0.0-2.0-23.0","null","Correct!","null","feedback","","","","","","true","","","","","","","","","","","",""
"","categorize-html","121","423766","0.0-1.0-7.0-0.0-2.0-24.0","null","<p>R</p>","null","combine","false","false","72","-1","","true","1","3","","","","","","","","","",""
"","html-keyboard-response","122","424530","0.0-1.0-7.0-0.0-2.0-25.0","626.8799998797476","Press <strong>H</strong> when you see a match.","72","feedback","","","","","","true","","","","","","","","","","","",""
"","categorize-html","123","426054","0.0-1.0-7.0-0.0-2.0-26.0","null","<p>E</p>","null","combine","false","false","90","-1","","true","0","3","","","","","","","","","",""
"","html-keyboard-response","124","426815","0.0-1.0-7.0-0.0-2.0-27.0","null"," ","null","feedback","","","","","","true","","","","","","","","","","","",""
"","categorize-html","125","427555","0.0-1.0-7.0-0.0-2.0-28.0","737.6650001388043","<p>T</p>","75","combine","false","true","72","-1","","true","0","3","","","","","","","","","",""
"","html-keyboard-response","126","428311","0.0-1.0-7.0-0.0-2.0-29.0","null","Press <strong>K</strong> when you see a T.","null","feedback","","","","","","true","","","","","","","","","","","",""
"","html-keyboard-response","127","435753","0.0-1.0-7.0-16.0-0.0","7438.460000092164","<p>Good job! You have reached 80% accuracy on this practice task. We will now move on.</p><p>[Press the space bar to continue.]</p>","32","debrief","","","","","","","","","","","","","","","","","",""
"","html-keyboard-response","128","505707","0.0-1.0-8.0-0.0-0.0","69950.53500006907","<p>Please read these instructions carefully, as you will be tested on your understanding of them.</p><p>Before each round begins, you will be asked how many points is a fair wage to be at least 80% accurate at one of the tasks you just practiced.</p><p>We want you to tell us truthfully how many points is a fair wage, and so we are using a payment process where <strong>telling the truth is the best strategy.</strong></p><p>This means that <strong>you have some control over what you will be paid</strong> at the end of the experiment.</p><p>Whenever given a choice, <strong> the best thing you can do is to always ask for what you consider to be a fair wage for at least 80% accuracy on the task.</strong></p><p>[Press the space bar to continue.]</p>","32","","","","","","","","","","","","","","","","","","",""
"","html-keyboard-response","129","538687","0.0-1.0-8.0-1.0-0.0","32978.434999939054","<p>What do we mean by ""fair wage""?</p><p>When you get hired to complete some work, you may ask for more or less payment based on how much you would enjoy doing that work.</p><p>For example, you might dislike mowing the lawn more than watering the garden, and may ask for more in return for mowing the lawn.</p><p>A fair wage for you is the amount of points you think it would be fair for you to receive in exchange for your completion of the task.</p><p>While you won't get paid exactly what you ask for, the best strategy is to ask for what you truly believe is a fair wage for you.</p><p>We're not going to get into the exact reasons why until the end of the experiment.</p><p>[Press the space bar to continue.]</p>","32","","","","","","","","","","","","","","","","","","",""
"","html-keyboard-response","130","585447","0.0-1.0-8.0-2.0-0.0","46758.30499990843","<p>In short, once you report your fair wage, the computer will present you with a <strong> random offer.</strong></p><p>If you ask for fewer points than the computer offers you, then you will complete the task and be given the points the computer offered.</p><p>Say you ask for 3 points and the computer offers 4, then if you pass the task with at least 80% accuracy, you will be given 4 points.</p><p>If you ask for more points than the computer offers you, then you will do a different task on that round. The alternate task is worth <strong>1 point.</strong></p><p>For example, if you ask for 5 points and the computer offers 4 points, then you will do something else and be given 1 point.</p><p>There is no way to game the payment system. You will either get the computer's random point offer, or 1 point for an alternative task.</p><p>[Press the space bar to continue.]</p>","32","","","","","","","","","","","","","","","","","","",""
"","html-slider-response","131","601713","0.0-1.0-8.0-3.0-0.0-0.0","16258.375000208616","<img src=""./static/img/fractal3.jpg"" width=""250"" height=""250""","","instructs","","","","","","","","","52","","","","","","","","",""
"","html-keyboard-response","132","616423","0.0-1.0-8.0-3.0-1.0-0.0","14707.679999992251","<p>You asked for 3.08 points.</p><p>The computer offered 4.88 points.</p><p>Because the computer's offer is larger, you would move onto the pictured task and, if you achieved 80% accuracy on this task, you would be given 4.88 points at the end.</p><p>Press the space bar to continue.</p>","32","","","","","","","","","","","","","","","","","","",""
"","html-slider-response","133","621685","0.0-1.0-8.0-3.0-2.0-0.0","5258.009999990463","<img src=""./static/img/fractal3.jpg"" width=""250"" height=""250""","","instructs","","","","","","","","","96","","","","","","","","",""
"","html-keyboard-response","134","634359","0.0-1.0-8.0-3.0-3.0-0.0","12672.114999964833","<p>You asked for 4.84 points.</p><p>The computer offered 1.24 points.</p><p>Because the computer's offer is smaller, you would skip the pictured task and, if you achieved 80% accuracy on an alternate task, you would be given 1 point at the end.</p><p>Press the space bar to continue.</p>","32","","","","","","","","","","","","","","","","","","",""
"","html-keyboard-response","135","650159","0.0-1.0-8.0-4.0-0.0","15798.045000061393","<p><strong> Your best strategy is to always ask for what you believe is a fair wage for hitting at least 80% accuracy on 1 round of a task.</strong></p><p>We will now quiz you on the instructions you've just read. If you fail this quiz, you cannot participate in this experiment.</p><p>Press R if you'd like to read these instructions again.</p><p>Press the space bar if you'd like to move on to the quiz.</p>","32","","","","","","","","","","","","","","","","","","",""
"","categorize-html","136","660001","0.0-1.0-8.0-6.0-0.0","7827.500000130385","<p'font-size':15px>[Question 1 of 6]</p><p'font-size':25px>[Press A or B to indicate your answer.]</p><p'font-size':25px>Imagine you think a true fair wage is 2 points. Which amount should you ask for?</p><p 'font-size':25px> A. 4</p><p 'font-size':25px> B. 2</p>","66","quiz","true","","","","","","","","","","","","","","","","",""
"","categorize-html","137","662158","0.0-1.0-8.0-6.0-0.1","143.91500013880432","<p'font-size':15px>[Question 2 of 6]</p><p'font-size':25px>[Press A or B to indicate your answer.]</p><p><img src='./static/img/offer_big.png'></p><p'font-size':25px>What happens when you ask for <strong>more</strong> points than the computer offers?</p><p>A. You will start the pictured task, and get the points the computer offered if you pass that round.</p><p 'font-size':25px> B. You will start a different task and be given 1 point if you pass that round.</p>","32","quiz","false","","","","","","","","","","","","","","","","",""
"","categorize-html","138","677286","0.0-1.0-8.0-6.0-0.2","13111.190000083297","<p'font-size':15px>[Question 3 of 6]</p><p'font-size':25px>[Press A or B to indicate your answer.]</p><p'font-size':25px>Under which of the following two conditions will you do the pictured task?</p><p>A. When you ask for 2 points, and the computer randomly offers 3 points.</p><p 'font-size':25px> B. When you ask for 2 points, and the computer randomly offers 1 point.</p>","65","quiz","true","","","","","","","","","","","","","","","","",""
"","categorize-html","139","688737","0.0-1.0-8.0-6.0-0.3","9433.28500003554","<p'font-size':15px>[Question 4 of 6]</p><p'font-size':25px>[Press A or B to indicate your answer.]</p><p><img src='./static/img/offer_small.png'></p><p'font-size':25px>What happens when you ask for <strong>fewer</strong> points than the computer offers?</p><p>A. You will start the task, and get the points the computer offered if you pass that round.</p><p 'font-size':25px> B. You will start a different task and be given 1 point if you pass that round.</p>","65","quiz","true","","","","","","","","","","","","","","","","",""
"","categorize-html","140","698065","0.0-1.0-8.0-6.0-0.4","7313.370000105351","<p'font-size':15px>[Question 5 of 6]</p><p'font-size':25px>[Press A or B to indicate your answer.]</p><p'font-size':25px>Under which of the following two conditions will you <strong>not</strong> do the pictured task?</p><p>A. When you ask for 3 points, and the computer randomly offers 2 points.</p><p 'font-size':25px> B. When you ask for 3 points, and the computer randomly offers 4 points.</p>","65","quiz","true","","","","","","","","","","","","","","","","",""
"","categorize-html","141","707202","0.0-1.0-8.0-6.0-0.5","7124.139999970794","<p'font-size':15px>[Question 6 of 6]</p><p'font-size':25px>[Press A or B to indicate your answer.]</p><p'font-size':25px>Which is the correct strategy for asking for points?</p><p>A. Ask for as many points as possible.</p><p 'font-size':25px> B. Tell the truth about what is a fair wage for you.</p>","66","quiz","true","","","","","","","","","","","","","","","","",""
"","html-keyboard-response","142","710193","0.0-1.0-8.0-7.0-0.0","2987.659999867901","<p>Great job! We will now begin the real experiment.</p><p>[Press the space bar to continue.]</p>","32","BDMquiz","","","","","","","","","","83.33333333333334","","","","","","","",""
"","html-keyboard-response","143","737580","0.0-1.0-9.0-0.0","27384.924999903888","<p>The real experiment will now start. </p><p>For each round of the experiment, you will be asked how many points you would like to earn to complete a task.</p><p>If you ask for more points than a randomly generated number, you will not complete that task. </p><p>Instead, you will complete a different task and earn 1 point.</p><p>At the end of the experiment, the points you earn will be counted and turned into a bonus payment. $$</p><p>[Press the space bar to continue.]</p>","32","instructions","","","","","","","","","","","","","","","","","",""
"","html-keyboard-response","144","763991","0.0-1.0-10.0-0.0","26408.395000034943","<p>Pay attention! If you are not at least 80% accurate, you will not earn points for completing each task.</p><p>You will not be getting the same amount of feedback on your performance in the real experiment.</p><p>If you press a button, the stimulus on screen will turn red to show you that the computer registered your response.</p><p>If we can tell that you are not paying attention (not accurate enough or not responding quickly enough), then this HIT will end early and you will earn a smaller payment. $$</p><p>[Press the space bar to begin the real experiment.]</p>","32","instructions","","","","","","","","","","","","","","","","","",""
"","html-slider-response","145","779268","0.0-2.0-0.0-0.0","15273.27000000514","<img src=""./static/img/fractal1.jpg"" width=""250"" height=""250""","","BDM","","","","0","","","","","88","","93.1309262513364","","","","","","",""
"","html-keyboard-response","146","790036","0.0-2.0-1.0-0.0","10766.569999977946","<p style='font-size':25px> You want <strong> 4.52 </strong> points. </p> <p> The computer offers <strong>1.76</strong> points. </p><p> You will do the following task instead to earn 1 point. </p> <img src=""./static/img/fractal2.png"" width=""250"" height=""250"" location='center'></img><p>[Press the space bar to continue.]</p>","32","","","","","","","","","","","","","","","","","","",""
"","html-keyboard-response","147","790150","0.0-2.0-3.0-0.0","null","+","null","","","","","","","","","","","","","","","","","","",""
"","html-keyboard-response","148","795087","0.0-2.0-3.0-1.0-0.0","4935.555000090972","<p>In this task, you will need to press <strong>K</strong> every time you see the target letter <strong>T</strong>. </p><p>You must respond while the letter is on screen or your answer will not count.</p><p> Pay attention! If you are not at least 80% accurate, you will not earn points for completing this task.</p> <p>Press space to begin.</p>","32","instructions","","","","","","","","","","","","","","","","","",""
"","categorize-html","149","796605","0.0-2.0-3.0-2.0-0.0","null","<p>X</p>","null","detection","false","false","90","0","","","","","","","","2","","","","","",""
"","html-keyboard-response","150","796613","0.0-2.0-3.0-2.0-1.0","null","<p style=""color: red"">X</p>","null","feedback","","","","","","","","","","","","","","","","","",""
"","html-keyboard-response","151","796920","0.0-2.0-3.0-2.0-2.0","null"," ","null","ITI","","","","","","","","","","","","","","","","","",""
"","categorize-html","152","797375","0.0-2.0-3.0-2.0-3.0","452.5150000117719","<p>T</p>","75","detection","true","true","75","0","","","","","","","","3","","","","","",""
"","html-keyboard-response","153","798448","0.0-2.0-3.0-2.0-4.0","null","<p style=""color: red"">T</p>","null","feedback","","","","","","","","","","","","","","","","","",""
"","html-keyboard-response","154","798765","0.0-2.0-3.0-2.0-5.0","null"," ","null","ITI","","","","","","","","","","","","","","","","","",""
"","categorize-html","155","799304","0.0-2.0-3.0-2.0-6.0","532.9849999397993","<p>T</p>","75","detection","true","true","75","0","","","","","","","","3","","","","","",""
"","html-keyboard-response","156","800274","0.0-2.0-3.0-2.0-7.0","null","<p style=""color: red"">T</p>","null","feedback","","","","","","","","","","","","","","","","","",""
"","html-keyboard-response","157","800591","0.0-2.0-3.0-2.0-8.0","null"," ","null","ITI","","","","","","","","","","","","","","","","","",""
"","categorize-html","158","802116","0.0-2.0-3.0-2.0-9.0","null","<p>X</p>","null","detection","false","false","90","0","","","","","","","","2","","","","","",""
"","html-keyboard-response","159","802126","0.0-2.0-3.0-2.0-10.0","null","<p style=""color: red"">X</p>","null","feedback","","","","","","","","","","","","","","","","","",""
"","html-keyboard-response","160","802432","0.0-2.0-3.0-2.0-11.0","null"," ","null","ITI","","","","","","","","","","","","","","","","","",""
"","categorize-html","161","803960","0.0-2.0-3.0-2.0-12.0","null","<p>E</p>","null","detection","false","false","90","0","","","","","","","","0","","","","","",""
"","html-keyboard-response","162","803966","0.0-2.0-3.0-2.0-13.0","null","<p style=""color: red"">E</p>","null","feedback","","","","","","","","","","","","","","","","","",""
"","html-keyboard-response","163","804278","0.0-2.0-3.0-2.0-14.0","null"," ","null","ITI","","","","","","","","","","","","","","","","","",""
"","categorize-html","164","805794","0.0-2.0-3.0-2.0-15.0","null","<p>X</p>","null","detection","false","false","90","0","","","","","","","","2","","","","","",""
"","html-keyboard-response","165","805802","0.0-2.0-3.0-2.0-16.0","null","<p style=""color: red"">X</p>","null","feedback","","","","","","","","","","","","","","","","","",""
"","html-keyboard-response","166","806125","0.0-2.0-3.0-2.0-17.0","null"," ","null","ITI","","","","","","","","","","","","","","","","","",""
"","categorize-html","167","807653","0.0-2.0-3.0-2.0-18.0","null","<p>X</p>","null","detection","false","false","90","0","","","","","","","","2","","","","","",""
"","html-keyboard-response","168","807661","0.0-2.0-3.0-2.0-19.0","null","<p style=""color: red"">X</p>","null","feedback","","","","","","","","","","","","","","","","","",""
"","html-keyboard-response","169","807975","0.0-2.0-3.0-2.0-20.0","null"," ","null","ITI","","","","","","","","","","","","","","","","","",""
"","categorize-html","170","809496","0.0-2.0-3.0-2.0-21.0","null","<p>R</p>","null","detection","false","false","90","0","","","","","","","","1","","","","","",""
"","html-keyboard-response","171","809502","0.0-2.0-3.0-2.0-22.0","null","<p style=""color: red"">R</p>","null","feedback","","","","","","","","","","","","","","","","","",""
"","html-keyboard-response","172","809815","0.0-2.0-3.0-2.0-23.0","null"," ","null","ITI","","","","","","","","","","","","","","","","","",""
"","categorize-html","173","810304","0.0-2.0-3.0-2.0-24.0","486.84999998658895","<p>T</p>","75","detection","true","true","75","0","","","","","","","","3","","","","","",""
"","html-keyboard-response","174","811328","0.0-2.0-3.0-2.0-25.0","null","<p style=""color: red"">T</p>","null","feedback","","","","","","","","","","","","","","","","","",""
"","html-keyboard-response","175","811639","0.0-2.0-3.0-2.0-26.0","null"," ","null","ITI","","","","","","","","","","","","","","","","","",""
"","categorize-html","176","813163","0.0-2.0-3.0-2.0-27.0","null","<p>R</p>","null","detection","false","false","90","0","","","","","","","","1","","","","","",""
"","html-keyboard-response","177","813169","0.0-2.0-3.0-2.0-28.0","null","<p style=""color: red"">R</p>","null","feedback","","","","","","","","","","","","","","","","","",""
"","html-keyboard-response","178","813472","0.0-2.0-3.0-2.0-29.0","null"," ","null","ITI","","","","","","","","","","","","","","","","","",""
"","categorize-html","179","814988","0.0-2.0-3.0-2.0-30.0","null","<p>R</p>","null","detection","false","false","90","0","","","","","","","","1","","","","","",""
"","html-keyboard-response","180","814995","0.0-2.0-3.0-2.0-31.0","null","<p style=""color: red"">R</p>","null","feedback","","","","","","","","","","","","","","","","","",""
"","html-keyboard-response","181","815312","0.0-2.0-3.0-2.0-32.0","null"," ","null","ITI","","","","","","","","","","","","","","","","","",""
"","categorize-html","182","816824","0.0-2.0-3.0-2.0-33.0","null","<p>E</p>","null","detection","false","false","90","0","","","","","","","","0","","","","","",""
"","html-keyboard-response","183","816832","0.0-2.0-3.0-2.0-34.0","null","<p style=""color: red"">E</p>","null","feedback","","","","","","","","","","","","","","","","","",""
"","html-keyboard-response","184","817147","0.0-2.0-3.0-2.0-35.0","null"," ","null","ITI","","","","","","","","","","","","","","","","","",""
"","categorize-html","185","818666","0.0-2.0-3.0-2.0-36.0","null","<p>X</p>","null","detection","false","false","90","0","","","","","","","","2","","","","","",""
"","html-keyboard-response","186","818674","0.0-2.0-3.0-2.0-37.0","null","<p style=""color: red"">X</p>","null","feedback","","","","","","","","","","","","","","","","","",""
"","html-keyboard-response","187","818990","0.0-2.0-3.0-2.0-38.0","null"," ","null","ITI","","","","","","","","","","","","","","","","","",""
"","categorize-html","188","820508","0.0-2.0-3.0-2.0-39.0","null","<p>E</p>","null","detection","false","false","90","0","","","","","","","","0","","","","","",""
"","html-keyboard-response","189","820515","0.0-2.0-3.0-2.0-40.0","null","<p style=""color: red"">E</p>","null","feedback","","","","","","","","","","","","","","","","","",""
"","html-keyboard-response","190","820819","0.0-2.0-3.0-2.0-41.0","null"," ","null","ITI","","","","","","","","","","","","","","","","","",""
"","categorize-html","191","822344","0.0-2.0-3.0-2.0-42.0","null","<p>R</p>","null","detection","false","false","90","0","","","","","","","","1","","","","","",""
"","html-keyboard-response","192","822353","0.0-2.0-3.0-2.0-43.0","null","<p style=""color: red"">R</p>","null","feedback","","","","","","","","","","","","","","","","","",""
"","html-keyboard-response","193","822664","0.0-2.0-3.0-2.0-44.0","null"," ","null","ITI","","","","","","","","","","","","","","","","","",""
"","html-keyboard-response","194","824277","0.0-2.0-3.0-3.0","1609.0600001625717","<p>Great job! You earned 1 point(s) from this task.</p> </p><p>Press the space bar to continue. </p>","32","debrief","","","","","","","","","","","","","","","","","",""
"","html-slider-response","195","836249","0.0-2.0-4.0-0.0","11968.044999986887","<img src=""./static/img/fractal1.jpg"" width=""250"" height=""250""","","BDM","","","","1","","","","","76","","91.46404977521783","","","","","","",""
"","html-keyboard-response","196","840265","0.0-2.0-5.0-0.0","4013.2299999240786","<p style='font-size':25px> You want <strong> 4.04 </strong> points. </p> <p> The computer offers <strong>3.76</strong> points. </p><p> You will do the following task instead to earn 1 point. </p> <img src=""./static/img/fractal2.png"" width=""250"" height=""250"" location='center'></img><p>[Press the space bar to continue.]</p>","32","","","","","","","","","","","","","","","","","","",""
"","html-keyboard-response","197","840383","0.0-2.0-7.0-0.0","null","+","null","","","","","","","","","","","","","","","","","","",""
"","html-keyboard-response","198","842203","0.0-2.0-7.0-1.0-0.0","1817.5999999511987","<p>In this task, you will need to press <strong>K</strong> every time you see the target letter <strong>T</strong>. </p><p>You must respond while the letter is on screen or your answer will not count.</p><p> Pay attention! If you are not at least 80% accurate, you will not earn points for completing this task.</p> <p>Press space to begin.</p>","32","instructions","","","","","","","","","","","","","","","","","",""
"","categorize-html","199","843719","0.0-2.0-7.0-2.0-0.0","null","<p>R</p>","null","detection","false","false","90","1","","","","","","","","1","","","","","",""
"","html-keyboard-response","200","843727","0.0-2.0-7.0-2.0-1.0","null","<p style=""color: red"">R</p>","null","feedback","","","","","","","","","","","","","","","","","",""
"","html-keyboard-response","201","844037","0.0-2.0-7.0-2.0-2.0","null"," ","null","ITI","","","","","","","","","","","","","","","","","",""
"","categorize-html","202","844441","0.0-2.0-7.0-2.0-3.0","401.7500001937151","<p>T</p>","75","detection","true","true","75","1","","","","","","","","3","","","","","",""
"","html-keyboard-response","203","845550","0.0-2.0-7.0-2.0-4.0","null","<p style=""color: red"">T</p>","null","feedback","","","","","","","","","","","","","","","","","",""
"","html-keyboard-response","204","845868","0.0-2.0-7.0-2.0-5.0","null"," ","null","ITI","","","","","","","","","","","","","","","","","",""
"","categorize-html","205","847377","0.0-2.0-7.0-2.0-6.0","null","<p>E</p>","null","detection","false","false","90","1","","","","","","","","0","","","","","",""
"","html-keyboard-response","206","847384","0.0-2.0-7.0-2.0-7.0","null","<p style=""color: red"">E</p>","null","feedback","","","","","","","","","","","","","","","","","",""
"","html-keyboard-response","207","847700","0.0-2.0-7.0-2.0-8.0","null"," ","null","ITI","","","","","","","","","","","","","","","","","",""
"","categorize-html","208","849212","0.0-2.0-7.0-2.0-9.0","null","<p>R</p>","null","detection","false","false","90","1","","","","","","","","1","","","","","",""
"","html-keyboard-response","209","849218","0.0-2.0-7.0-2.0-10.0","null","<p style=""color: red"">R</p>","null","feedback","","","","","","","","","","","","","","","","","",""
"","html-keyboard-response","210","849529","0.0-2.0-7.0-2.0-11.0","null"," ","null","ITI","","","","","","","","","","","","","","","","","",""
"","categorize-html","211","851039","0.0-2.0-7.0-2.0-12.0","null","<p>X</p>","null","detection","false","false","90","1","","","","","","","","2","","","","","",""
"","html-keyboard-response","212","851047","0.0-2.0-7.0-2.0-13.0","null","<p style=""color: red"">X</p>","null","feedback","","","","","","","","","","","","","","","","","",""
"","html-keyboard-response","213","851361","0.0-2.0-7.0-2.0-14.0","null"," ","null","ITI","","","","","","","","","","","","","","","","","",""
"","categorize-html","214","851725","0.0-2.0-7.0-2.0-15.0","360.19000015221536","<p>T</p>","75","detection","true","true","75","1","","","","","","","","3","","","","","",""
"","html-keyboard-response","215","852867","0.0-2.0-7.0-2.0-16.0","null","<p style=""color: red"">T</p>","null","feedback","","","","","","","","","","","","","","","","","",""
"","html-keyboard-response","216","853174","0.0-2.0-7.0-2.0-17.0","null"," ","null","ITI","","","","","","","","","","","","","","","","","",""
"","categorize-html","217","854689","0.0-2.0-7.0-2.0-18.0","null","<p>X</p>","null","detection","false","false","90","1","","","","","","","","2","","","","","",""
"","html-keyboard-response","218","854696","0.0-2.0-7.0-2.0-19.0","null","<p style=""color: red"">X</p>","null","feedback","","","","","","","","","","","","","","","","","",""
"","html-keyboard-response","219","855001","0.0-2.0-7.0-2.0-20.0","null"," ","null","ITI","","","","","","","","","","","","","","","","","",""
"","categorize-html","220","856522","0.0-2.0-7.0-2.0-21.0","null","<p>R</p>","null","detection","false","false","90","1","","","","","","","","1","","","","","",""
"","html-keyboard-response","221","856527","0.0-2.0-7.0-2.0-22.0","null","<p style=""color: red"">R</p>","null","feedback","","","","","","","","","","","","","","","","","",""
"","html-keyboard-response","222","856830","0.0-2.0-7.0-2.0-23.0","null"," ","null","ITI","","","","","","","","","","","","","","","","","",""
"","categorize-html","223","858343","0.0-2.0-7.0-2.0-24.0","null","<p>X</p>","null","detection","false","false","90","1","","","","","","","","2","","","","","",""
"","html-keyboard-response","224","858352","0.0-2.0-7.0-2.0-25.0","null","<p style=""color: red"">X</p>","null","feedback","","","","","","","","","","","","","","","","","",""
"","html-keyboard-response","225","858666","0.0-2.0-7.0-2.0-26.0","null"," ","null","ITI","","","","","","","","","","","","","","","","","",""
"","categorize-html","226","859133","0.0-2.0-7.0-2.0-27.0","465.1300001423806","<p>T</p>","75","detection","true","true","75","1","","","","","","","","3","","","","","",""
"","html-keyboard-response","227","860171","0.0-2.0-7.0-2.0-28.0","null","<p style=""color: red"">T</p>","null","feedback","","","","","","","","","","","","","","","","","",""
"","html-keyboard-response","228","860486","0.0-2.0-7.0-2.0-29.0","null"," ","null","ITI","","","","","","","","","","","","","","","","","",""
"","categorize-html","229","862004","0.0-2.0-7.0-2.0-30.0","null","<p>E</p>","null","detection","false","false","90","1","","","","","","","","0","","","","","",""
"","html-keyboard-response","230","862013","0.0-2.0-7.0-2.0-31.0","null","<p style=""color: red"">E</p>","null","feedback","","","","","","","","","","","","","","","","","",""
"","html-keyboard-response","231","862324","0.0-2.0-7.0-2.0-32.0","null"," ","null","ITI","","","","","","","","","","","","","","","","","",""
"","categorize-html","232","863837","0.0-2.0-7.0-2.0-33.0","null","<p>E</p>","null","detection","false","false","90","1","","","","","","","","0","","","","","",""
"","html-keyboard-response","233","863843","0.0-2.0-7.0-2.0-34.0","null","<p style=""color: red"">E</p>","null","feedback","","","","","","","","","","","","","","","","","",""
"","html-keyboard-response","234","864152","0.0-2.0-7.0-2.0-35.0","null"," ","null","ITI","","","","","","","","","","","","","","","","","",""
"","categorize-html","235","865668","0.0-2.0-7.0-2.0-36.0","null","<p>X</p>","null","detection","false","false","90","1","","","","","","","","2","","","","","",""
"","html-keyboard-response","236","865674","0.0-2.0-7.0-2.0-37.0","null","<p style=""color: red"">X</p>","null","feedback","","","","","","","","","","","","","","","","","",""
"","html-keyboard-response","237","865992","0.0-2.0-7.0-2.0-38.0","null"," ","null","ITI","","","","","","","","","","","","","","","","","",""
"","categorize-html","238","867514","0.0-2.0-7.0-2.0-39.0","null","<p>X</p>","null","detection","false","false","90","1","","","","","","","","2","","","","","",""
"","html-keyboard-response","239","867522","0.0-2.0-7.0-2.0-40.0","null","<p style=""color: red"">X</p>","null","feedback","","","","","","","","","","","","","","","","","",""
"","html-keyboard-response","240","867834","0.0-2.0-7.0-2.0-41.0","null"," ","null","ITI","","","","","","","","","","","","","","","","","",""
"","categorize-html","241","869353","0.0-2.0-7.0-2.0-42.0","null","<p>X</p>","null","detection","false","false","90","1","","","","","","","","2","","","","","",""
"","html-keyboard-response","242","869360","0.0-2.0-7.0-2.0-43.0","null","<p style=""color: red"">X</p>","null","feedback","","","","","","","","","","","","","","","","","",""
"","html-keyboard-response","243","869679","0.0-2.0-7.0-2.0-44.0","null"," ","null","ITI","","","","","","","","","","","","","","","","","",""
"","html-keyboard-response","244","870732","0.0-2.0-7.0-3.0","1049.8150000348687","<p>Great job! You earned 1 point(s) from this task.</p> </p><p>Press the space bar to continue. </p>","32","debrief","","","","","","","","","","","","","","","","","",""
"","html-slider-response","245","889286","0.0-2.0-8.0-0.0","18550.44999998063","<img src=""./static/img/fractal1.jpg"" width=""250"" height=""250""","","BDM","","","","2","","","","","72","","12.566494960878982","","","","","","",""
"","html-keyboard-response","246","894522","0.0-2.0-9.0-0.0","5232.009999919683","<p style='font-size':25px> You want <strong> 3.88 </strong> points. </p> <p> The computer offers <strong>4.64</strong> points. </p><p> You will be given 4.64 points if you achieve at least 80% accuracy on this task. </p><img src=""./static/img/fractal1.jpg"" width=""250"" height=""250"" location='center'></img><p>[Press the space bar to continue.]</p>","32","","","","","","","","","","","","","","","","","","",""
"","html-keyboard-response","247","894635","0.0-2.0-10.0-0.0","null","+","null","","","","","","","","","","","","","","","","","","",""
"","html-keyboard-response","248","903676","0.0-2.0-10.0-1.0-0.0","9039.27499987185","<p>In this task, you will need to press <strong>H</strong> every time you see the same letter you saw 3 letters ago.</p> <p>If the image on screen was not the one you saw 3 letters ago, do not press anything.</p><p>If you see a T, press <strong>K</strong> as fast as you can.</p><p>Pay attention! If you are not at least 80% accurate, you will not earn points for completing this task.</p> <p>Press space to begin.</p>","32","","","","","","","","","","","","","","","","","","",""
"","categorize-html","249","905183","0.0-2.0-10.0-2.0-0.0","null","<p>X</p>","null","combine","false","false","90","2","","","0","3","","","","","","","","","",""
"","html-keyboard-response","250","905191","0.0-2.0-10.0-2.0-1.0","null","<p style=""color: red"">X</p>","null","feedback","","","","","","","","","","","","","","","","","",""
"","html-keyboard-response","251","905502","0.0-2.0-10.0-2.0-2.0","null"," ","null","ITI","","","","","","","","","","","","","","","","","",""
"","categorize-html","252","907017","0.0-2.0-10.0-2.0-3.0","null","<p>X</p>","null","combine","false","false","90","2","","","0","3","","","","","","","","","",""
"","html-keyboard-response","253","907025","0.0-2.0-10.0-2.0-4.0","null","<p style=""color: red"">X</p>","null","feedback","","","","","","","","","","","","","","","","","",""
"","html-keyboard-response","254","907339","0.0-2.0-10.0-2.0-5.0","null"," ","null","ITI","","","","","","","","","","","","","","","","","",""
"","categorize-html","255","908849","0.0-2.0-10.0-2.0-6.0","null","<p>X</p>","null","combine","false","false","90","2","","","0","3","","","","","","","","","",""
"","html-keyboard-response","256","908858","0.0-2.0-10.0-2.0-7.0","null","<p style=""color: red"">X</p>","null","feedback","","","","","","","","","","","","","","","","","",""
"","html-keyboard-response","257","909166","0.0-2.0-10.0-2.0-8.0","null"," ","null","ITI","","","","","","","","","","","","","","","","","",""
"","categorize-html","258","909864","0.0-2.0-10.0-2.0-9.0","695.6950000021607","<p>T</p>","75","combine","true","true","75","2","","","0","3","","","","","","","","","",""
"","html-keyboard-response","259","910678","0.0-2.0-10.0-2.0-10.0","null","<p style=""color: red"">T</p>","null","feedback","","","","","","","","","","","","","","","","","",""
"","html-keyboard-response","260","910981","0.0-2.0-10.0-2.0-11.0","null"," ","null","ITI","","","","","","","","","","","","","","","","","",""
"","categorize-html","261","911767","0.0-2.0-10.0-2.0-12.0","782.1900001727045","<p>X</p>","72","combine","true","false","72","2","","","1","3","","","","","","","","","",""
"","html-keyboard-response","262","912493","0.0-2.0-10.0-2.0-13.0","null","<p style=""color: red"">X</p>","null","feedback","","","","","","","","","","","","","","","","","",""
"","html-keyboard-response","263","912813","0.0-2.0-10.0-2.0-14.0","null"," ","null","ITI","","","","","","","","","","","","","","","","","",""
"","categorize-html","264","914332","0.0-2.0-10.0-2.0-15.0","null","<p>R</p>","null","combine","false","false","90","2","","","0","3","","","","","","","","","",""
"","html-keyboard-response","265","914339","0.0-2.0-10.0-2.0-16.0","null","<p style=""color: red"">R</p>","null","feedback","","","","","","","","","","","","","","","","","",""
"","html-keyboard-response","266","914647","0.0-2.0-10.0-2.0-17.0","null"," ","null","ITI","","","","","","","","","","","","","","","","","",""
"","categorize-html","267","915470","0.0-2.0-10.0-2.0-18.0","819.7049999143928","<p>T</p>","75","combine","false","true","72","2","","","0","3","","","","","","","","","",""
"","html-keyboard-response","268","916161","0.0-2.0-10.0-2.0-19.0","null","<p style=""color: red"">T</p>","null","feedback","","","","","","","","","","","","","","","","","",""
"","html-keyboard-response","269","916472","0.0-2.0-10.0-2.0-20.0","null"," ","null","ITI","","","","","","","","","","","","","","","","","",""
"","categorize-html","270","917988","0.0-2.0-10.0-2.0-21.0","null","<p>R</p>","null","combine","false","false","90","2","","","0","3","","","","","","","","","",""
"","html-keyboard-response","271","917994","0.0-2.0-10.0-2.0-22.0","null","<p style=""color: red"">R</p>","null","feedback","","","","","","","","","","","","","","","","","",""
"","html-keyboard-response","272","918301","0.0-2.0-10.0-2.0-23.0","null"," ","null","ITI","","","","","","","","","","","","","","","","","",""
"","categorize-html","273","919814","0.0-2.0-10.0-2.0-24.0","null","<p>E</p>","null","combine","false","false","90","2","","","0","3","","","","","","","","","",""
"","html-keyboard-response","274","919823","0.0-2.0-10.0-2.0-25.0","null","<p style=""color: red"">E</p>","null","feedback","","","","","","","","","","","","","","","","","",""
"","html-keyboard-response","275","920134","0.0-2.0-10.0-2.0-26.0","null"," ","null","ITI","","","","","","","","","","","","","","","","","",""
"","categorize-html","276","920981","0.0-2.0-10.0-2.0-27.0","839.8800001014024","<p>T</p>","75","combine","false","true","72","2","","","0","3","","","","","","","","","",""
"","html-keyboard-response","277","921651","0.0-2.0-10.0-2.0-28.0","null","<p style=""color: red"">T</p>","null","feedback","","","","","","","","","","","","","","","","","",""
"","html-keyboard-response","278","921968","0.0-2.0-10.0-2.0-29.0","null"," ","null","ITI","","","","","","","","","","","","","","","","","",""
"","categorize-html","279","923228","0.0-2.0-10.0-2.0-30.0","1257.0699998177588","<p>R</p>","72","combine","true","false","72","2","","","1","3","","","","","","","","","",""
"","html-keyboard-response","280","923478","0.0-2.0-10.0-2.0-31.0","null","<p style=""color: red"">R</p>","null","feedback","","","","","","","","","","","","","","","","","",""
"","html-keyboard-response","281","923781","0.0-2.0-10.0-2.0-32.0","null"," ","null","ITI","","","","","","","","","","","","","","","","","",""
"","categorize-html","282","925293","0.0-2.0-10.0-2.0-33.0","null","<p>R</p>","null","combine","false","false","90","2","","","0","3","","","","","","","","","",""
"","html-keyboard-response","283","925301","0.0-2.0-10.0-2.0-34.0","null","<p style=""color: red"">R</p>","null","feedback","","","","","","","","","","","","","","","","","",""
"","html-keyboard-response","284","925613","0.0-2.0-10.0-2.0-35.0","null"," ","null","ITI","","","","","","","","","","","","","","","","","",""
"","categorize-html","285","927145","0.0-2.0-10.0-2.0-36.0","null","<p>X</p>","null","combine","false","false","90","2","","","0","3","","","","","","","","","",""
"","html-keyboard-response","286","927152","0.0-2.0-10.0-2.0-37.0","null","<p style=""color: red"">X</p>","null","feedback","","","","","","","","","","","","","","","","","",""
"","html-keyboard-response","287","927470","0.0-2.0-10.0-2.0-38.0","null"," ","null","ITI","","","","","","","","","","","","","","","","","",""
"","categorize-html","288","928369","0.0-2.0-10.0-2.0-39.0","894.1849998664111","<p>R</p>","72","combine","true","false","72","2","","","1","3","","","","","","","","","",""
"","html-keyboard-response","289","928989","0.0-2.0-10.0-2.0-40.0","null","<p style=""color: red"">R</p>","null","feedback","","","","","","","","","","","","","","","","","",""
"","html-keyboard-response","290","929299","0.0-2.0-10.0-2.0-41.0","null"," ","null","ITI","","","","","","","","","","","","","","","","","",""
"","categorize-html","291","930428","0.0-2.0-10.0-2.0-42.0","1125.1000000629574","<p>R</p>","72","combine","true","false","72","2","","","1","3","","","","","","","","","",""
"","html-keyboard-response","292","930819","0.0-2.0-10.0-2.0-43.0","null","<p style=""color: red"">R</p>","null","feedback","","","","","","","","","","","","","","","","","",""
"","html-keyboard-response","293","931123","0.0-2.0-10.0-2.0-44.0","null"," ","null","ITI","","","","","","","","","","","","","","","","","",""
"","html-keyboard-response","294","934596","0.0-2.0-10.0-3.0","3469.5150000043213","<p style='font-size:25px'>Great job! You earned 4.64 point(s) from this task.</p> </p><p style='font-size:25px'>Press the space bar to continue. </p>","32","","","","","","","","","","","","","","","","","","",""
"","html-slider-response","295","948251","0.0-2.0-12.0-0.0","13652.680000057444","<img src=""./static/img/fractal1.jpg"" width=""250"" height=""250""","","BDM","","","","3","","","","","88","","0.6183430386006217","","","","","","",""
"","html-keyboard-response","296","952924","0.0-2.0-13.0-0.0","4671.009999932721","<p style='font-size':25px> You want <strong> 4.52 </strong> points. </p> <p> The computer offers <strong>4.60</strong> points. </p><p> You will be given 4.60 points if you achieve at least 80% accuracy on this task. </p><img src=""./static/img/fractal1.jpg"" width=""250"" height=""250"" location='center'></img><p>[Press the space bar to continue.]</p>","32","","","","","","","","","","","","","","","","","","",""
"","html-keyboard-response","297","953034","0.0-2.0-14.0-0.0","null","+","null","","","","","","","","","","","","","","","","","","",""
"","html-keyboard-response","298","954704","0.0-2.0-14.0-1.0-0.0","1668.0200002156198","<p>In this task, you will need to press <strong>H</strong> every time you see the same letter you saw 3 letters ago.</p> <p>If the image on screen was not the one you saw 3 letters ago, do not press anything.</p><p>If you see a T, press <strong>K</strong> as fast as you can.</p><p>Pay attention! If you are not at least 80% accurate, you will not earn points for completing this task.</p> <p>Press space to begin.</p>","32","","","","","","","","","","","","","","","","","","",""
"","categorize-html","299","956223","0.0-2.0-14.0-2.0-0.0","null","<p>X</p>","null","combine","false","false","90","3","","","0","3","","","","","","","","","",""
"","html-keyboard-response","300","956228","0.0-2.0-14.0-2.0-1.0","null","<p style=""color: red"">X</p>","null","feedback","","","","","","","","","","","","","","","","","",""
"","html-keyboard-response","301","956546","0.0-2.0-14.0-2.0-2.0","null"," ","null","ITI","","","","","","","","","","","","","","","","","",""
"","categorize-html","302","958058","0.0-2.0-14.0-2.0-3.0","null","<p>E</p>","null","combine","false","false","90","3","","","0","3","","","","","","","","","",""
"","html-keyboard-response","303","958065","0.0-2.0-14.0-2.0-4.0","null","<p style=""color: red"">E</p>","null","feedback","","","","","","","","","","","","","","","","","",""
"","html-keyboard-response","304","958369","0.0-2.0-14.0-2.0-5.0","null"," ","null","ITI","","","","","","","","","","","","","","","","","",""
"","categorize-html","305","959894","0.0-2.0-14.0-2.0-6.0","null","<p>R</p>","null","combine","false","false","90","3","","","0","3","","","","","","","","","",""
"","html-keyboard-response","306","959900","0.0-2.0-14.0-2.0-7.0","null","<p style=""color: red"">R</p>","null","feedback","","","","","","","","","","","","","","","","","",""
"","html-keyboard-response","307","960221","0.0-2.0-14.0-2.0-8.0","null"," ","null","ITI","","","","","","","","","","","","","","","","","",""
"","categorize-html","308","960947","0.0-2.0-14.0-2.0-9.0","723.1550000142306","<p>T</p>","75","combine","true","true","75","3","","","0","3","","","","","","","","","",""
"","html-keyboard-response","309","961725","0.0-2.0-14.0-2.0-10.0","null","<p style=""color: red"">T</p>","null","feedback","","","","","","","","","","","","","","","","","",""
"","html-keyboard-response","310","962037","0.0-2.0-14.0-2.0-11.0","null"," ","null","ITI","","","","","","","","","","","","","","","","","",""
"","categorize-html","311","962917","0.0-2.0-14.0-2.0-12.0","876.240000128746","<p>E</p>","72","combine","true","false","72","3","","","1","3","","","","","","","","","",""
"","html-keyboard-response","312","963551","0.0-2.0-14.0-2.0-13.0","null","<p style=""color: red"">E</p>","null","feedback","","","","","","","","","","","","","","","","","",""
"","html-keyboard-response","313","963873","0.0-2.0-14.0-2.0-14.0","null"," ","null","ITI","","","","","","","","","","","","","","","","","",""
"","categorize-html","314","965396","0.0-2.0-14.0-2.0-15.0","null","<p>T</p>","null","combine","false","true","75","3","","","0","3","","","","","","","","","",""
"","html-keyboard-response","315","965404","0.0-2.0-14.0-2.0-16.0","1.02499988861382","<p style=""color: red"">T</p>","75","feedback","","","","","","","","","","","","","","","","","",""
"","html-keyboard-response","316","965713","0.0-2.0-14.0-2.0-17.0","null"," ","null","ITI","","","","","","","","","","","","","","","","","",""
"","categorize-html","317","966266","0.0-2.0-14.0-2.0-18.0","550.3000000026077","<p>T</p>","75","combine","false","true","72","3","","","0","3","","","","","","","","","",""
"","html-keyboard-response","318","967221","0.0-2.0-14.0-2.0-19.0","null","<p style=""color: red"">T</p>","null","feedback","","","","","","","","","","","","","","","","","",""
"","html-keyboard-response","319","967537","0.0-2.0-14.0-2.0-20.0","null"," ","null","ITI","","","","","","","","","","","","","","","","","",""
"","categorize-html","320","968981","0.0-2.0-14.0-2.0-21.0","1440.5249999836087","<p>R</p>","72","combine","false","false","90","3","","","0","3","","","","","","","","","",""
"","html-keyboard-response","321","969056","0.0-2.0-14.0-2.0-22.0","null","<p style=""color: red"">R</p>","null","feedback","","","","","","","","","","","","","","","","","",""
"","html-keyboard-response","322","969370","0.0-2.0-14.0-2.0-23.0","null"," ","null","ITI","","","","","","","","","","","","","","","","","",""
"","categorize-html","323","970252","0.0-2.0-14.0-2.0-24.0","878.2500000670552","<p>T</p>","75","combine","false","true","72","3","","","0","3","","","","","","","","","",""
"","html-keyboard-response","324","970882","0.0-2.0-14.0-2.0-25.0","null","<p style=""color: red"">T</p>","null","feedback","","","","","","","","","","","","","","","","","",""
"","html-keyboard-response","325","971194","0.0-2.0-14.0-2.0-26.0","null"," ","null","ITI","","","","","","","","","","","","","","","","","",""
"","categorize-html","326","972715","0.0-2.0-14.0-2.0-27.0","null","<p>E</p>","null","combine","false","false","90","3","","","0","3","","","","","","","","","",""
"","html-keyboard-response","327","972723","0.0-2.0-14.0-2.0-28.0","null","<p style=""color: red"">E</p>","null","feedback","","","","","","","","","","","","","","","","","",""
"","html-keyboard-response","328","973028","0.0-2.0-14.0-2.0-29.0","null"," ","null","ITI","","","","","","","","","","","","","","","","","",""
"","categorize-html","329","974541","0.0-2.0-14.0-2.0-30.0","null","<p>X</p>","null","combine","false","false","90","3","","","0","3","","","","","","","","","",""
"","html-keyboard-response","330","974550","0.0-2.0-14.0-2.0-31.0","null","<p style=""color: red"">X</p>","null","feedback","","","","","","","","","","","","","","","","","",""
"","html-keyboard-response","331","974858","0.0-2.0-14.0-2.0-32.0","null"," ","null","ITI","","","","","","","","","","","","","","","","","",""
"","categorize-html","332","976384","0.0-2.0-14.0-2.0-33.0","null","<p>E</p>","null","combine","false","false","90","3","","","0","3","","","","","","","","","",""
"","html-keyboard-response","333","976391","0.0-2.0-14.0-2.0-34.0","null","<p style=""color: red"">E</p>","null","feedback","","","","","","","","","","","","","","","","","",""
"","html-keyboard-response","334","976696","0.0-2.0-14.0-2.0-35.0","null"," ","null","ITI","","","","","","","","","","","","","","","","","",""
"","categorize-html","335","978214","0.0-2.0-14.0-2.0-36.0","null","<p>R</p>","null","combine","false","false","90","3","","","0","3","","","","","","","","","",""
"","html-keyboard-response","336","978222","0.0-2.0-14.0-2.0-37.0","null","<p style=""color: red"">R</p>","null","feedback","","","","","","","","","","","","","","","","","",""
"","html-keyboard-response","337","978535","0.0-2.0-14.0-2.0-38.0","null"," ","null","ITI","","","","","","","","","","","","","","","","","",""
"","categorize-html","338","979739","0.0-2.0-14.0-2.0-39.0","1200.3399999812245","<p>X</p>","72","combine","true","false","72","3","","","1","3","","","","","","","","","",""
"","html-keyboard-response","339","980052","0.0-2.0-14.0-2.0-40.0","null","<p style=""color: red"">X</p>","null","feedback","","","","","","","","","","","","","","","","","",""
"","html-keyboard-response","340","980364","0.0-2.0-14.0-2.0-41.0","null"," ","null","ITI","","","","","","","","","","","","","","","","","",""
"","categorize-html","341","981877","0.0-2.0-14.0-2.0-42.0","null","<p>R</p>","null","combine","false","false","90","3","","","0","3","","","","","","","","","",""
"","html-keyboard-response","342","981885","0.0-2.0-14.0-2.0-43.0","null","<p style=""color: red"">R</p>","null","feedback","","","","","","","","","","","","","","","","","",""
"","html-keyboard-response","343","982188","0.0-2.0-14.0-2.0-44.0","null"," ","null","ITI","","","","","","","","","","","","","","","","","",""
"","html-keyboard-response","344","986184","0.0-2.0-14.0-3.0","3993.779999902472","<p style='font-size:25px'>Great job! You earned 4.60 point(s) from this task.</p> </p><p style='font-size:25px'>Press the space bar to continue. </p>","32","","","","","","","","","","","","","","","","","","",""
"","html-slider-response","345","1007280","0.0-2.0-16.0-0.0","21093.364999862388","<img src=""./static/img/fractal1.jpg"" width=""250"" height=""250""","","BDM","","","","4","","","","","84","","31.198189523169418","","","","","","",""
"","html-keyboard-response","346","1013788","0.0-2.0-17.0-0.0","6506.300000008196","<p style='font-size':25px> You want <strong> 4.36 </strong> points. </p> <p> The computer offers <strong>3.76</strong> points. </p><p> You will do the following task instead to earn 1 point. </p> <img src=""./static/img/fractal2.png"" width=""250"" height=""250"" location='center'></img><p>[Press the space bar to continue.]</p>","32","","","","","","","","","","","","","","","","","","",""
"","html-keyboard-response","347","1013899","0.0-2.0-19.0-0.0","null","+","null","","","","","","","","","","","","","","","","","","",""
"","html-keyboard-response","348","1015375","0.0-2.0-19.0-1.0-0.0","1473.8300000317395","<p>In this task, you will need to press <strong>K</strong> every time you see the target letter <strong>T</strong>. </p><p>You must respond while the letter is on screen or your answer will not count.</p><p> Pay attention! If you are not at least 80% accurate, you will not earn points for completing this task.</p> <p>Press space to begin.</p>","32","instructions","","","","","","","","","","","","","","","","","",""
"","categorize-html","349","1016196","0.0-2.0-19.0-2.0-0.0","817.9049999453127","<p>T</p>","75","detection","true","true","75","4","","","","","","","","3","","","","","",""
"","html-keyboard-response","350","1016888","0.0-2.0-19.0-2.0-1.0","null","<p style=""color: red"">T</p>","null","feedback","","","","","","","","","","","","","","","","","",""
"","html-keyboard-response","351","1017192","0.0-2.0-19.0-2.0-2.0","null"," ","null","ITI","","","","","","","","","","","","","","","","","",""
"","categorize-html","352","1018715","0.0-2.0-19.0-2.0-3.0","null","<p>R</p>","null","detection","false","false","90","4","","","","","","","","1","","","","","",""
"","html-keyboard-response","353","1018722","0.0-2.0-19.0-2.0-4.0","null","<p style=""color: red"">R</p>","null","feedback","","","","","","","","","","","","","","","","","",""
"","html-keyboard-response","354","1019039","0.0-2.0-19.0-2.0-5.0","null"," ","null","ITI","","","","","","","","","","","","","","","","","",""
"","categorize-html","355","1020567","0.0-2.0-19.0-2.0-6.0","null","<p>R</p>","null","detection","false","false","90","4","","","","","","","","1","","","","","",""
"","html-keyboard-response","356","1020572","0.0-2.0-19.0-2.0-7.0","null","<p style=""color: red"">R</p>","null","feedback","","","","","","","","","","","","","","","","","",""
"","html-keyboard-response","357","1020886","0.0-2.0-19.0-2.0-8.0","null"," ","null","ITI","","","","","","","","","","","","","","","","","",""
"","categorize-html","358","1022406","0.0-2.0-19.0-2.0-9.0","null","<p>X</p>","null","detection","false","false","90","4","","","","","","","","2","","","","","",""
"","html-keyboard-response","359","1022412","0.0-2.0-19.0-2.0-10.0","null","<p style=""color: red"">X</p>","null","feedback","","","","","","","","","","","","","","","","","",""
"","html-keyboard-response","360","1022736","0.0-2.0-19.0-2.0-11.0","null"," ","null","ITI","","","","","","","","","","","","","","","","","",""
"","categorize-html","361","1024250","0.0-2.0-19.0-2.0-12.0","null","<p>R</p>","null","detection","false","false","90","4","","","","","","","","1","","","","","",""
"","html-keyboard-response","362","1024256","0.0-2.0-19.0-2.0-13.0","null","<p style=""color: red"">R</p>","null","feedback","","","","","","","","","","","","","","","","","",""
"","html-keyboard-response","363","1024559","0.0-2.0-19.0-2.0-14.0","null"," ","null","ITI","","","","","","","","","","","","","","","","","",""
"","categorize-html","364","1026079","0.0-2.0-19.0-2.0-15.0","null","<p>E</p>","null","detection","false","false","90","4","","","","","","","","0","","","","","",""
"","html-keyboard-response","365","1026090","0.0-2.0-19.0-2.0-16.0","null","<p style=""color: red"">E</p>","null","feedback","","","","","","","","","","","","","","","","","",""
"","html-keyboard-response","366","1026405","0.0-2.0-19.0-2.0-17.0","null"," ","null","ITI","","","","","","","","","","","","","","","","","",""
"","categorize-html","367","1027926","0.0-2.0-19.0-2.0-18.0","null","<p>R</p>","null","detection","false","false","90","4","","","","","","","","1","","","","","",""
"","html-keyboard-response","368","1027934","0.0-2.0-19.0-2.0-19.0","null","<p style=""color: red"">R</p>","null","feedback","","","","","","","","","","","","","","","","","",""
"","html-keyboard-response","369","1028253","0.0-2.0-19.0-2.0-20.0","null"," ","null","ITI","","","","","","","","","","","","","","","","","",""
"","categorize-html","370","1029766","0.0-2.0-19.0-2.0-21.0","null","<p>R</p>","null","detection","false","false","90","4","","","","","","","","1","","","","","",""
"","html-keyboard-response","371","1029772","0.0-2.0-19.0-2.0-22.0","null","<p style=""color: red"">R</p>","null","feedback","","","","","","","","","","","","","","","","","",""
"","html-keyboard-response","372","1030089","0.0-2.0-19.0-2.0-23.0","null"," ","null","ITI","","","","","","","","","","","","","","","","","",""
"","categorize-html","373","1031613","0.0-2.0-19.0-2.0-24.0","null","<p>R</p>","null","detection","false","false","90","4","","","","","","","","1","","","","","",""
"","html-keyboard-response","374","1031618","0.0-2.0-19.0-2.0-25.0","null","<p style=""color: red"">R</p>","null","feedback","","","","","","","","","","","","","","","","","",""
"","html-keyboard-response","375","1031934","0.0-2.0-19.0-2.0-26.0","null"," ","null","ITI","","","","","","","","","","","","","","","","","",""
"","categorize-html","376","1033458","0.0-2.0-19.0-2.0-27.0","null","<p>X</p>","null","detection","false","false","90","4","","","","","","","","2","","","","","",""
"","html-keyboard-response","377","1033466","0.0-2.0-19.0-2.0-28.0","null","<p style=""color: red"">X</p>","null","feedback","","","","","","","","","","","","","","","","","",""
"","html-keyboard-response","378","1033770","0.0-2.0-19.0-2.0-29.0","null"," ","null","ITI","","","","","","","","","","","","","","","","","",""
"","categorize-html","379","1034169","0.0-2.0-19.0-2.0-30.0","396.06499997898936","<p>T</p>","75","detection","true","true","75","4","","","","","","","","3","","","","","",""
"","html-keyboard-response","380","1035284","0.0-2.0-19.0-2.0-31.0","null","<p style=""color: red"">T</p>","null","feedback","","","","","","","","","","","","","","","","","",""
"","html-keyboard-response","381","1035587","0.0-2.0-19.0-2.0-32.0","null"," ","null","ITI","","","","","","","","","","","","","","","","","",""
"","categorize-html","382","1037107","0.0-2.0-19.0-2.0-33.0","null","<p>E</p>","null","detection","false","false","90","4","","","","","","","","0","","","","","",""
"","html-keyboard-response","383","1037115","0.0-2.0-19.0-2.0-34.0","null","<p style=""color: red"">E</p>","null","feedback","","","","","","","","","","","","","","","","","",""
"","html-keyboard-response","384","1037430","0.0-2.0-19.0-2.0-35.0","null"," ","null","ITI","","","","","","","","","","","","","","","","","",""
"","categorize-html","385","1038965","0.0-2.0-19.0-2.0-36.0","null","<p>X</p>","null","detection","false","false","90","4","","","","","","","","2","","","","","",""
"","html-keyboard-response","386","1038971","0.0-2.0-19.0-2.0-37.0","null","<p style=""color: red"">X</p>","null","feedback","","","","","","","","","","","","","","","","","",""
"","html-keyboard-response","387","1039275","0.0-2.0-19.0-2.0-38.0","null"," ","null","ITI","","","","","","","","","","","","","","","","","",""
"","categorize-html","388","1040805","0.0-2.0-19.0-2.0-39.0","null","<p>E</p>","null","detection","false","false","90","4","","","","","","","","0","","","","","",""
"","html-keyboard-response","389","1040813","0.0-2.0-19.0-2.0-40.0","null","<p style=""color: red"">E</p>","null","feedback","","","","","","","","","","","","","","","","","",""
"","html-keyboard-response","390","1041131","0.0-2.0-19.0-2.0-41.0","null"," ","null","ITI","","","","","","","","","","","","","","","","","",""
"","categorize-html","391","1041633","0.0-2.0-19.0-2.0-42.0","499.36000001616776","<p>T</p>","75","detection","true","true","75","4","","","","","","","","3","","","","","",""
"","html-keyboard-response","392","1042641","0.0-2.0-19.0-2.0-43.0","null","<p style=""color: red"">T</p>","null","feedback","","","","","","","","","","","","","","","","","",""
"","html-keyboard-response","393","1042949","0.0-2.0-19.0-2.0-44.0","null"," ","null","ITI","","","","","","","","","","","","","","","","","",""
"","html-keyboard-response","394","1043875","0.0-2.0-19.0-3.0","924.1200000979006","<p>Great job! You earned 1 point(s) from this task.</p> </p><p>Press the space bar to continue. </p>","32","debrief","","","","","","","","","","","","","","","","","",""
"","html-slider-response","395","1055389","0.0-2.0-20.0-0.0","11510.434999829158","<img src=""./static/img/fractal1.jpg"" width=""250"" height=""250""","","BDM","","","","5","","","","","80","","84.76101634711549","","","","","","",""
"","html-keyboard-response","396","1062599","0.0-2.0-21.0-0.0","7207.649999996647","<p style='font-size':25px> You want <strong> 4.20 </strong> points. </p> <p> The computer offers <strong>1.48</strong> points. </p><p> You will do the following task instead to earn 1 point. </p> <img src=""./static/img/fractal2.png"" width=""250"" height=""250"" location='center'></img><p>[Press the space bar to continue.]</p>","32","","","","","","","","","","","","","","","","","","",""
"","html-keyboard-response","397","1062715","0.0-2.0-23.0-0.0","null","+","null","","","","","","","","","","","","","","","","","","",""
"","html-keyboard-response","398","1063799","0.0-2.0-23.0-1.0-0.0","1081.7350000143051","<p>In this task, you will need to press <strong>K</strong> every time you see the target letter <strong>T</strong>. </p><p>You must respond while the letter is on screen or your answer will not count.</p><p> Pay attention! If you are not at least 80% accurate, you will not earn points for completing this task.</p> <p>Press space to begin.</p>","32","instructions","","","","","","","","","","","","","","","","","",""
"","categorize-html","399","1065313","0.0-2.0-23.0-2.0-0.0","null","<p>R</p>","null","detection","false","false","90","5","","","","","","","","1","","","","","",""
"","html-keyboard-response","400","1065322","0.0-2.0-23.0-2.0-1.0","null","<p style=""color: red"">R</p>","null","feedback","","","","","","","","","","","","","","","","","",""
"","html-keyboard-response","401","1065635","0.0-2.0-23.0-2.0-2.0","null"," ","null","ITI","","","","","","","","","","","","","","","","","",""
"","categorize-html","402","1067148","0.0-2.0-23.0-2.0-3.0","null","<p>E</p>","null","detection","false","false","90","5","","","","","","","","0","","","","","",""
"","html-keyboard-response","403","1067155","0.0-2.0-23.0-2.0-4.0","null","<p style=""color: red"">E</p>","null","feedback","","","","","","","","","","","","","","","","","",""
"","html-keyboard-response","404","1067460","0.0-2.0-23.0-2.0-5.0","null"," ","null","ITI","","","","","","","","","","","","","","","","","",""
"","categorize-html","405","1068984","0.0-2.0-23.0-2.0-6.0","null","<p>E</p>","null","detection","false","false","90","5","","","","","","","","0","","","","","",""
"","html-keyboard-response","406","1068992","0.0-2.0-23.0-2.0-7.0","null","<p style=""color: red"">E</p>","null","feedback","","","","","","","","","","","","","","","","","",""
"","html-keyboard-response","407","1069310","0.0-2.0-23.0-2.0-8.0","null"," ","null","ITI","","","","","","","","","","","","","","","","","",""
"","categorize-html","408","1070833","0.0-2.0-23.0-2.0-9.0","null","<p>X</p>","null","detection","false","false","90","5","","","","","","","","2","","","","","",""
"","html-keyboard-response","409","1070841","0.0-2.0-23.0-2.0-10.0","null","<p style=""color: red"">X</p>","null","feedback","","","","","","","","","","","","","","","","","",""
"","html-keyboard-response","410","1071154","0.0-2.0-23.0-2.0-11.0","null"," ","null","ITI","","","","","","","","","","","","","","","","","",""
"","categorize-html","411","1072677","0.0-2.0-23.0-2.0-12.0","null","<p>R</p>","null","detection","false","false","90","5","","","","","","","","1","","","","","",""
"","html-keyboard-response","412","1072685","0.0-2.0-23.0-2.0-13.0","null","<p style=""color: red"">R</p>","null","feedback","","","","","","","","","","","","","","","","","",""
"","html-keyboard-response","413","1072996","0.0-2.0-23.0-2.0-14.0","null"," ","null","ITI","","","","","","","","","","","","","","","","","",""
"","categorize-html","414","1074525","0.0-2.0-23.0-2.0-15.0","null","<p>R</p>","null","detection","false","false","90","5","","","","","","","","1","","","","","",""
"","html-keyboard-response","415","1074533","0.0-2.0-23.0-2.0-16.0","null","<p style=""color: red"">R</p>","null","feedback","","","","","","","","","","","","","","","","","",""
"","html-keyboard-response","416","1074836","0.0-2.0-23.0-2.0-17.0","null"," ","null","ITI","","","","","","","","","","","","","","","","","",""
"","categorize-html","417","1076360","0.0-2.0-23.0-2.0-18.0","null","<p>E</p>","null","detection","false","false","90","5","","","","","","","","0","","","","","",""
"","html-keyboard-response","418","1076368","0.0-2.0-23.0-2.0-19.0","null","<p style=""color: red"">E</p>","null","feedback","","","","","","","","","","","","","","","","","",""
"","html-keyboard-response","419","1076679","0.0-2.0-23.0-2.0-20.0","null"," ","null","ITI","","","","","","","","","","","","","","","","","",""
"","categorize-html","420","1077092","0.0-2.0-23.0-2.0-21.0","410.18999996595085","<p>T</p>","75","detection","true","true","75","5","","","","","","","","3","","","","","",""
"","html-keyboard-response","421","1078191","0.0-2.0-23.0-2.0-22.0","null","<p style=""color: red"">T</p>","null","feedback","","","","","","","","","","","","","","","","","",""
"","html-keyboard-response","422","1078495","0.0-2.0-23.0-2.0-23.0","null"," ","null","ITI","","","","","","","","","","","","","","","","","",""
"","categorize-html","423","1080014","0.0-2.0-23.0-2.0-24.0","null","<p>R</p>","null","detection","false","false","90","5","","","","","","","","1","","","","","",""
"","html-keyboard-response","424","1080020","0.0-2.0-23.0-2.0-25.0","null","<p style=""color: red"">R</p>","null","feedback","","","","","","","","","","","","","","","","","",""
"","html-keyboard-response","425","1080328","0.0-2.0-23.0-2.0-26.0","null"," ","null","ITI","","","","","","","","","","","","","","","","","",""
"","categorize-html","426","1081846","0.0-2.0-23.0-2.0-27.0","null","<p>X</p>","null","detection","false","false","90","5","","","","","","","","2","","","","","",""
"","html-keyboard-response","427","1081851","0.0-2.0-23.0-2.0-28.0","null","<p style=""color: red"">X</p>","null","feedback","","","","","","","","","","","","","","","","","",""
"","html-keyboard-response","428","1082156","0.0-2.0-23.0-2.0-29.0","null"," ","null","ITI","","","","","","","","","","","","","","","","","",""
"","categorize-html","429","1082592","0.0-2.0-23.0-2.0-30.0","432.92499985545874","<p>T</p>","75","detection","true","true","75","5","","","","","","","","3","","","","","",""
"","html-keyboard-response","430","1083666","0.0-2.0-23.0-2.0-31.0","null","<p style=""color: red"">T</p>","null","feedback","","","","","","","","","","","","","","","","","",""
"","html-keyboard-response","431","1083982","0.0-2.0-23.0-2.0-32.0","null"," ","null","ITI","","","","","","","","","","","","","","","","","",""
"","categorize-html","432","1085500","0.0-2.0-23.0-2.0-33.0","null","<p>R</p>","null","detection","false","false","90","5","","","","","","","","1","","","","","",""
"","html-keyboard-response","433","1085506","0.0-2.0-23.0-2.0-34.0","null","<p style=""color: red"">R</p>","null","feedback","","","","","","","","","","","","","","","","","",""
"","html-keyboard-response","434","1085821","0.0-2.0-23.0-2.0-35.0","null"," ","null","ITI","","","","","","","","","","","","","","","","","",""
"","categorize-html","435","1086182","0.0-2.0-23.0-2.0-36.0","357.6899999752641","<p>T</p>","75","detection","true","true","75","5","","","","","","","","3","","","","","",""
"","html-keyboard-response","436","1087331","0.0-2.0-23.0-2.0-37.0","null","<p style=""color: red"">T</p>","null","feedback","","","","","","","","","","","","","","","","","",""
"","html-keyboard-response","437","1087642","0.0-2.0-23.0-2.0-38.0","null"," ","null","ITI","","","","","","","","","","","","","","","","","",""
"","categorize-html","438","1089155","0.0-2.0-23.0-2.0-39.0","null","<p>E</p>","null","detection","false","false","90","5","","","","","","","","0","","","","","",""
"","html-keyboard-response","439","1089162","0.0-2.0-23.0-2.0-40.0","null","<p style=""color: red"">E</p>","null","feedback","","","","","","","","","","","","","","","","","",""
"","html-keyboard-response","440","1089478","0.0-2.0-23.0-2.0-41.0","null"," ","null","ITI","","","","","","","","","","","","","","","","","",""
"","categorize-html","441","1091004","0.0-2.0-23.0-2.0-42.0","null","<p>R</p>","null","detection","false","false","90","5","","","","","","","","1","","","","","",""
"","html-keyboard-response","442","1091010","0.0-2.0-23.0-2.0-43.0","null","<p style=""color: red"">R</p>","null","feedback","","","","","","","","","","","","","","","","","",""
"","html-keyboard-response","443","1091324","0.0-2.0-23.0-2.0-44.0","null"," ","null","ITI","","","","","","","","","","","","","","","","","",""
"","html-keyboard-response","444","1094611","0.0-2.0-23.0-3.0","3283.490000059828","<p>Great job! You earned 1 point(s) from this task.</p> </p><p>Press the space bar to continue. </p>","32","debrief","","","","","","","","","","","","","","","","","",""
"","html-slider-response","445","1105911","0.0-3.0-0.0-0.0","11295.715000014752","<img src=""./static/img/fractal1.jpg"" width=""250"" height=""250""","","BDM","","","","6","","","","","72","","43.327390246400064","","","","","","",""
"","html-keyboard-response","446","1109391","0.0-3.0-1.0-0.0","3477.4100000504404","<p style='font-size':25px> You want <strong> 3.88 </strong> points. </p> <p> The computer offers <strong>3.36</strong> points. </p><p> You will do the following task instead to earn 1 point. </p> <img src=""./static/img/fractal2.png"" width=""250"" height=""250"" location='center'></img><p>[Press the space bar to continue.]</p>","32","","","","","","","","","","","","","","","","","","",""
"","html-keyboard-response","447","1109499","0.0-3.0-3.0-0.0","null","+","null","","","","","","","","","","","","","","","","","","",""
"","html-keyboard-response","448","1110453","0.0-3.0-3.0-1.0-0.0","951.9650000147521","<p>In this task, you will need to press <strong>K</strong> every time you see the target letter <strong>T</strong>. </p><p>You must respond while the letter is on screen or your answer will not count.</p><p> Pay attention! If you are not at least 80% accurate, you will not earn points for completing this task.</p> <p>Press space to begin.</p>","32","instructions","","","","","","","","","","","","","","","","","",""
"","categorize-html","449","1111959","0.0-3.0-3.0-2.0-0.0","null","<p>X</p>","null","detection","false","false","90","6","","","","","","","","2","","","","","",""
"","html-keyboard-response","450","1111965","0.0-3.0-3.0-2.0-1.0","null","<p style=""color: red"">X</p>","null","feedback","","","","","","","","","","","","","","","","","",""
"","html-keyboard-response","451","1112281","0.0-3.0-3.0-2.0-2.0","null"," ","null","ITI","","","","","","","","","","","","","","","","","",""
"","categorize-html","452","1113815","0.0-3.0-3.0-2.0-3.0","null","<p>E</p>","null","detection","false","false","90","6","","","","","","","","0","","","","","",""
"","html-keyboard-response","453","1113822","0.0-3.0-3.0-2.0-4.0","null","<p style=""color: red"">E</p>","null","feedback","","","","","","","","","","","","","","","","","",""
"","html-keyboard-response","454","1114136","0.0-3.0-3.0-2.0-5.0","null"," ","null","ITI","","","","","","","","","","","","","","","","","",""
"","categorize-html","455","1115652","0.0-3.0-3.0-2.0-6.0","null","<p>R</p>","null","detection","false","false","90","6","","","","","","","","1","","","","","",""
"","html-keyboard-response","456","1115658","0.0-3.0-3.0-2.0-7.0","null","<p style=""color: red"">R</p>","null","feedback","","","","","","","","","","","","","","","","","",""
"","html-keyboard-response","457","1115976","0.0-3.0-3.0-2.0-8.0","null"," ","null","ITI","","","","","","","","","","","","","","","","","",""
"","categorize-html","458","1117499","0.0-3.0-3.0-2.0-9.0","null","<p>E</p>","null","detection","false","false","90","6","","","","","","","","0","","","","","",""
"","html-keyboard-response","459","1117506","0.0-3.0-3.0-2.0-10.0","null","<p style=""color: red"">E</p>","null","feedback","","","","","","","","","","","","","","","","","",""
"","html-keyboard-response","460","1117821","0.0-3.0-3.0-2.0-11.0","null"," ","null","ITI","","","","","","","","","","","","","","","","","",""
"","categorize-html","461","1118183","0.0-3.0-3.0-2.0-12.0","358.3949999883771","<p>T</p>","75","detection","true","true","75","6","","","","","","","","3","","","","","",""
"","html-keyboard-response","462","1119336","0.0-3.0-3.0-2.0-13.0","null","<p style=""color: red"">T</p>","null","feedback","","","","","","","","","","","","","","","","","",""
"","html-keyboard-response","463","1119644","0.0-3.0-3.0-2.0-14.0","null"," ","null","ITI","","","","","","","","","","","","","","","","","",""
"","categorize-html","464","1121159","0.0-3.0-3.0-2.0-15.0","null","<p>E</p>","null","detection","false","false","90","6","","","","","","","","0","","","","","",""
"","html-keyboard-response","465","1121165","0.0-3.0-3.0-2.0-16.0","null","<p style=""color: red"">E</p>","null","feedback","","","","","","","","","","","","","","","","","",""
"","html-keyboard-response","466","1121478","0.0-3.0-3.0-2.0-17.0","null"," ","null","ITI","","","","","","","","","","","","","","","","","",""
"","categorize-html","467","1121852","0.0-3.0-3.0-2.0-18.0","369.5900000166148","<p>T</p>","75","detection","true","true","75","6","","","","","","","","3","","","","","",""
"","html-keyboard-response","468","1122987","0.0-3.0-3.0-2.0-19.0","null","<p style=""color: red"">T</p>","null","feedback","","","","","","","","","","","","","","","","","",""
"","html-keyboard-response","469","1123293","0.0-3.0-3.0-2.0-20.0","null"," ","null","ITI","","","","","","","","","","","","","","","","","",""
"","categorize-html","470","1124817","0.0-3.0-3.0-2.0-21.0","null","<p>E</p>","null","detection","false","false","90","6","","","","","","","","0","","","","","",""
"","html-keyboard-response","471","1124824","0.0-3.0-3.0-2.0-22.0","null","<p style=""color: red"">E</p>","null","feedback","","","","","","","","","","","","","","","","","",""
"","html-keyboard-response","472","1125128","0.0-3.0-3.0-2.0-23.0","null"," ","null","ITI","","","","","","","","","","","","","","","","","",""
"","categorize-html","473","1126654","0.0-3.0-3.0-2.0-24.0","null","<p>E</p>","null","detection","false","false","90","6","","","","","","","","0","","","","","",""
"","html-keyboard-response","474","1126660","0.0-3.0-3.0-2.0-25.0","null","<p style=""color: red"">E</p>","null","feedback","","","","","","","","","","","","","","","","","",""
"","html-keyboard-response","475","1126975","0.0-3.0-3.0-2.0-26.0","null"," ","null","ITI","","","","","","","","","","","","","","","","","",""
"","categorize-html","476","1128490","0.0-3.0-3.0-2.0-27.0","null","<p>E</p>","null","detection","false","false","90","6","","","","","","","","0","","","","","",""
"","html-keyboard-response","477","1128501","0.0-3.0-3.0-2.0-28.0","null","<p style=""color: red"">E</p>","null","feedback","","","","","","","","","","","","","","","","","",""
"","html-keyboard-response","478","1128815","0.0-3.0-3.0-2.0-29.0","null"," ","null","ITI","","","","","","","","","","","","","","","","","",""
"","categorize-html","479","1130339","0.0-3.0-3.0-2.0-30.0","null","<p>R</p>","null","detection","false","false","90","6","","","","","","","","1","","","","","",""
"","html-keyboard-response","480","1130347","0.0-3.0-3.0-2.0-31.0","null","<p style=""color: red"">R</p>","null","feedback","","","","","","","","","","","","","","","","","",""
"","html-keyboard-response","481","1130664","0.0-3.0-3.0-2.0-32.0","null"," ","null","ITI","","","","","","","","","","","","","","","","","",""
"","categorize-html","482","1131038","0.0-3.0-3.0-2.0-33.0","370.7449999637902","<p>T</p>","75","detection","true","true","75","6","","","","","","","","3","","","","","",""
"","html-keyboard-response","483","1132177","0.0-3.0-3.0-2.0-34.0","null","<p style=""color: red"">T</p>","null","feedback","","","","","","","","","","","","","","","","","",""
"","html-keyboard-response","484","1132486","0.0-3.0-3.0-2.0-35.0","null"," ","null","ITI","","","","","","","","","","","","","","","","","",""
"","categorize-html","485","1134013","0.0-3.0-3.0-2.0-36.0","null","<p>E</p>","null","detection","false","false","90","6","","","","","","","","0","","","","","",""
"","html-keyboard-response","486","1134021","0.0-3.0-3.0-2.0-37.0","null","<p style=""color: red"">E</p>","null","feedback","","","","","","","","","","","","","","","","","",""
"","html-keyboard-response","487","1134325","0.0-3.0-3.0-2.0-38.0","null"," ","null","ITI","","","","","","","","","","","","","","","","","",""
"","categorize-html","488","1135840","0.0-3.0-3.0-2.0-39.0","null","<p>R</p>","null","detection","false","false","90","6","","","","","","","","1","","","","","",""
"","html-keyboard-response","489","1135848","0.0-3.0-3.0-2.0-40.0","null","<p style=""color: red"">R</p>","null","feedback","","","","","","","","","","","","","","","","","",""
"","html-keyboard-response","490","1136161","0.0-3.0-3.0-2.0-41.0","null"," ","null","ITI","","","","","","","","","","","","","","","","","",""
"","categorize-html","491","1137678","0.0-3.0-3.0-2.0-42.0","null","<p>E</p>","null","detection","false","false","90","6","","","","","","","","0","","","","","",""
"","html-keyboard-response","492","1137685","0.0-3.0-3.0-2.0-43.0","null","<p style=""color: red"">E</p>","null","feedback","","","","","","","","","","","","","","","","","",""
"","html-keyboard-response","493","1137988","0.0-3.0-3.0-2.0-44.0","null"," ","null","ITI","","","","","","","","","","","","","","","","","",""
"","html-keyboard-response","494","1140760","0.0-3.0-3.0-3.0","2769.550000084564","<p>Great job! You earned 1 point(s) from this task.</p> </p><p>Press the space bar to continue. </p>","32","debrief","","","","","","","","","","","","","","","","","",""
"","html-slider-response","495","1148473","0.0-3.0-4.0-0.0","7708.869999973103","<img src=""./static/img/fractal1.jpg"" width=""250"" height=""250""","","BDM","","","","7","","","","","68","","63.808523829919864","","","","","","",""
"","html-keyboard-response","496","1151949","0.0-3.0-5.0-0.0","3474.0199998486787","<p style='font-size':25px> You want <strong> 3.72 </strong> points. </p> <p> The computer offers <strong>3.68</strong> points. </p><p> You will do the following task instead to earn 1 point. </p> <img src=""./static/img/fractal2.png"" width=""250"" height=""250"" location='center'></img><p>[Press the space bar to continue.]</p>","32","","","","","","","","","","","","","","","","","","",""
"","html-keyboard-response","497","1152066","0.0-3.0-7.0-0.0","null","+","null","","","","","","","","","","","","","","","","","","",""
"","html-keyboard-response","498","1154101","0.0-3.0-7.0-1.0-0.0","2032.8949999529868","<p>In this task, you will need to press <strong>K</strong> every time you see the target letter <strong>T</strong>. </p><p>You must respond while the letter is on screen or your answer will not count.</p><p> Pay attention! If you are not at least 80% accurate, you will not earn points for completing this task.</p> <p>Press space to begin.</p>","32","instructions","","","","","","","","","","","","","","","","","",""
"","categorize-html","499","1155606","0.0-3.0-7.0-2.0-0.0","null","<p>R</p>","null","detection","false","false","90","7","","","","","","","","1","","","","","",""
