"success","trial_type","trial_index","time_elapsed","internal_node_id","rt","stimulus","key_press","task","correct","detect","correct_key","tasknum","practice_accuracy","practice","nback","n","number_practice_combines","response","BDMquizgrade","slider_start","stimnum","TOT","overall","performance_by_block","points_list","value_list","offer_list"
"true","fullscreen","0","78147","0.0-0.0","","","","","","","","","","","","","","","","","","","","","","",""
"","html-keyboard-response","1","137693","0.0-1.0-0.0-0.0","59537.46000002138","<p>In this experiment, you'll complete up to 12 short rounds of two tasks.</p><p>If you are 80% correct or better during one round of a task, then you pass that round and earn bonus points for it. If you are less than 80% correct, you will not earn any points for that round.</p><p>You can earn 1 to 5 points each round.</p><p>Keep in mind that you should be about 80% accurate for up to 12 rounds.</p><p>At the end of the experiment, the points you earned will be added up and turned into a bonus payment. $$ The more points you earn, the more money you will be paid. $$</p><p>If we can tell that you are not paying attention, then this experiment will end early and you will earn a smaller payment. $$</p><p>[Press space to practice the first task.]</p>","32","instructions","","","","","","","","","","","","","","","","","","",""
"","html-keyboard-response","2","145759","0.0-1.0-1.0-0.0-0.0","8063.714999938384","<img src=""./static/img/fractal1.jpg"" width=""250"" height=""250""","32","","","","","","","","","","","","","","","","","","","",""
"","html-keyboard-response","3","179357","0.0-1.0-1.0-1.0-0.0","33594.74499989301","<p>In this task, you will need to press <strong>H</strong> every time you see the target letter <strong>T</strong>. </p><p>You must respond while the letter is on screen or your answer will not count.</p><p> Pay attention! If you are not at least 80% accurate, you will not earn points for completing this round.</p> <p>Press space to begin.</p>","32","instructions","","","","","","","","","","","","","","","","","","",""
"","categorize-html","4","180601","0.0-1.0-1.0-2.0-0.0","1237.3899999074638","<p>T</p>","72","detection","true","true","72","-1","","","","","","","","","","","","","","",""
"","html-keyboard-response","5","181357","0.0-1.0-1.0-2.0-1.0","null","Correct!","null","feedback","","","","","","","","","","","","","","","","","","",""
"","categorize-html","6","182862","0.0-1.0-1.0-2.0-2.0","null","<p>X</p>","null","detection","false","false","90","-1","","","","","","","","","","","","","","",""
"","html-keyboard-response","7","183616","0.0-1.0-1.0-2.0-3.0","null"," ","null","feedback","","","","","","","","","","","","","","","","","","",""
"","categorize-html","8","185124","0.0-1.0-1.0-2.0-4.0","null","<p>X</p>","null","detection","false","false","90","-1","","","","","","","","","","","","","","",""
"","html-keyboard-response","9","185878","0.0-1.0-1.0-2.0-5.0","null"," ","null","feedback","","","","","","","","","","","","","","","","","","",""
"","categorize-html","10","187386","0.0-1.0-1.0-2.0-6.0","null","<p>E</p>","null","detection","false","false","90","-1","","","","","","","","","","","","","","",""
"","html-keyboard-response","11","188139","0.0-1.0-1.0-2.0-7.0","null"," ","null","feedback","","","","","","","","","","","","","","","","","","",""
"","categorize-html","12","189648","0.0-1.0-1.0-2.0-8.0","null","<p>E</p>","null","detection","false","false","90","-1","","","","","","","","","","","","","","",""
"","html-keyboard-response","13","190402","0.0-1.0-1.0-2.0-9.0","null"," ","null","feedback","","","","","","","","","","","","","","","","","","",""
"","categorize-html","14","191937","0.0-1.0-1.0-2.0-10.0","null","<p>X</p>","null","detection","false","false","90","-1","","","","","","","","","","","","","","",""
"","html-keyboard-response","15","192691","0.0-1.0-1.0-2.0-11.0","null"," ","null","feedback","","","","","","","","","","","","","","","","","","",""
"","categorize-html","16","194199","0.0-1.0-1.0-2.0-12.0","null","<p>X</p>","null","detection","false","false","90","-1","","","","","","","","","","","","","","",""
"","html-keyboard-response","17","194953","0.0-1.0-1.0-2.0-13.0","null"," ","null","feedback","","","","","","","","","","","","","","","","","","",""
"","categorize-html","18","196461","0.0-1.0-1.0-2.0-14.0","null","<p>E</p>","null","detection","false","false","90","-1","","","","","","","","","","","","","","",""
"","html-keyboard-response","19","197221","0.0-1.0-1.0-2.0-15.0","null"," ","null","feedback","","","","","","","","","","","","","","","","","","",""
"","categorize-html","20","198731","0.0-1.0-1.0-2.0-16.0","null","<p>X</p>","null","detection","false","false","90","-1","","","","","","","","","","","","","","",""
"","html-keyboard-response","21","199483","0.0-1.0-1.0-2.0-17.0","null"," ","null","feedback","","","","","","","","","","","","","","","","","","",""
"","categorize-html","22","199935","0.0-1.0-1.0-2.0-18.0","448.2350000180304","<p>T</p>","72","detection","true","true","72","-1","","","","","","","","","","","","","","",""
"","html-keyboard-response","23","200687","0.0-1.0-1.0-2.0-19.0","null","Correct!","null","feedback","","","","","","","","","","","","","","","","","","",""
"","html-keyboard-response","24","207918","0.0-1.0-1.0-3.0","7228.424999862909","<p>Your accuracy was <strong>100.00%</strong>.</p><p>You will need to be at least 80% accurate to earn points in the real experiment.</p><p>In the real experiment, you will not receive the same feedback as during practice.</p><p>Press the space bar to continue. </p>","32","debrief","","","","","100.00","true","","","","","","","","","","","","",""
"","html-keyboard-response","25","224432","0.0-1.0-2.0-0.0-0.0","16512.00499990955","<img src=""./static/img/fractal3.jpg"" width=""250"" height=""250""","32","","","","","","","","","","","","","","","","","","","",""
"","html-keyboard-response","26","256245","0.0-1.0-2.0-1.0-0.0","31809.099999954924","<p>In this task, you will need to press <strong>K</strong> every time you see the same letter you saw <strong>1</strong> letters ago.</p> <p>If the letter on screen was not the one you saw <strong>1</strong> letters ago, do not press anything.</p><p>Pay attention! If you are not at least 80% accurate by the last practice game, you will not progress to the real experiment.</p><img src=./static/img/1-back.png><p>Press space to begin.</p>","32","","","","","","","","","","","","","","","","","","","",""
"","categorize-html","27","257750","0.0-1.0-2.0-2.0-0.0","null","<p>E</p>","null","n-back","false","","90","-1","","true","false","1","","","","","","","","","","",""
"","html-keyboard-response","28","258504","0.0-1.0-2.0-2.0-1.0","null"," ","null","feedback","","","","","","true","","","","","","","","","","","","",""
"","categorize-html","29","259115","0.0-1.0-2.0-2.0-2.0","606.679999968037","<p>E</p>","32","n-back","false","","75","-1","","true","true","1","","","","","","","","","","",""
"","html-keyboard-response","30","259868","0.0-1.0-2.0-2.0-3.0","null","Please press K.","null","feedback","","","","","","true","","","","","","","","","","","","",""
"","categorize-html","31","261373","0.0-1.0-2.0-2.0-4.0","null","<p>R</p>","null","n-back","false","","90","-1","","true","false","1","","","","","","","","","","",""
"","html-keyboard-response","32","262126","0.0-1.0-2.0-2.0-5.0","null"," ","null","feedback","","","","","","true","","","","","","","","","","","","",""
"","categorize-html","33","262617","0.0-1.0-2.0-2.0-6.0","486.02500022388995","<p>R</p>","75","n-back","true","","75","-1","","true","true","1","","","","","","","","","","",""
"","html-keyboard-response","34","263371","0.0-1.0-2.0-2.0-7.0","null","Correct!","null","feedback","","","","","","true","","","","","","","","","","","","",""
"","categorize-html","35","264876","0.0-1.0-2.0-2.0-8.0","null","<p>X</p>","null","n-back","false","","90","-1","","true","false","1","","","","","","","","","","",""
"","html-keyboard-response","36","265646","0.0-1.0-2.0-2.0-9.0","null"," ","null","feedback","","","","","","true","","","","","","","","","","","","",""
"","categorize-html","37","266205","0.0-1.0-2.0-2.0-10.0","554.3649999890476","<p>X</p>","75","n-back","true","","75","-1","","true","true","1","","","","","","","","","","",""
"","html-keyboard-response","38","266959","0.0-1.0-2.0-2.0-11.0","null","Correct!","null","feedback","","","","","","true","","","","","","","","","","","","",""
"","categorize-html","39","268465","0.0-1.0-2.0-2.0-12.0","null","<p>E</p>","null","n-back","false","","90","-1","","true","false","1","","","","","","","","","","",""
"","html-keyboard-response","40","269219","0.0-1.0-2.0-2.0-13.0","null"," ","null","feedback","","","","","","true","","","","","","","","","","","","",""
"","categorize-html","41","270726","0.0-1.0-2.0-2.0-14.0","null","<p>R</p>","null","n-back","false","","90","-1","","true","false","1","","","","","","","","","","",""
"","html-keyboard-response","42","271478","0.0-1.0-2.0-2.0-15.0","null"," ","null","feedback","","","","","","true","","","","","","","","","","","","",""
"","categorize-html","43","272986","0.0-1.0-2.0-2.0-16.0","null","<p>E</p>","null","n-back","false","","90","-1","","true","false","1","","","","","","","","","","",""
"","html-keyboard-response","44","273740","0.0-1.0-2.0-2.0-17.0","null"," ","null","feedback","","","","","","true","","","","","","","","","","","","",""
"","categorize-html","45","274176","0.0-1.0-2.0-2.0-18.0","431.42500007525086","<p>E</p>","75","n-back","true","","75","-1","","true","true","1","","","","","","","","","","",""
"","html-keyboard-response","46","274930","0.0-1.0-2.0-2.0-19.0","null","Correct!","null","feedback","","","","","","true","","","","","","","","","","","","",""
"","html-keyboard-response","47","282974","0.0-1.0-2.0-3.0","8040.210000006482","<p>Your accuracy was <strong>90.00%</strong>.</p><p>You will need to be at least 80% accurate during the study to earn points.</p><p>Please remember that you will not receive feedback like this during the real experiment.</p><p>Press the space bar to continue.</p>","32","","","","","","90.00","true","","","","","","","","","","","","",""
"","html-keyboard-response","48","285267","0.0-1.0-3.0-0.0-0.0","2290.2699999976903","<img src=""./static/img/fractal3.jpg"" width=""250"" height=""250""","32","","","","","","","","","","","","","","","","","","","",""
"","html-keyboard-response","49","320622","0.0-1.0-3.0-1.0-0.0","35350.63500003889","<p>In this task, you will need to press <strong>K</strong> every time you see the same letter you saw <strong>2</strong> letters ago.</p> <p>If the letter on screen was not the one you saw <strong>2</strong> letters ago, do not press anything.</p><p>Pay attention! If you are not at least 80% accurate by the last practice game, you will not progress to the real experiment.</p><img src=./static/img/2-back.png><p>Press space to begin.</p>","32","","","","","","","","","","","","","","","","","","","",""
"","categorize-html","50","322126","0.0-1.0-3.0-2.0-0.0","null","<p>X</p>","null","n-back","false","","90","-1","","true","false","2","","","","","","","","","","",""
"","html-keyboard-response","51","322879","0.0-1.0-3.0-2.0-1.0","null"," ","null","feedback","","","","","","true","","","","","","","","","","","","",""
"","categorize-html","52","324387","0.0-1.0-3.0-2.0-2.0","null","<p>X</p>","null","n-back","false","","90","-1","","true","false","2","","","","","","","","","","",""
"","html-keyboard-response","53","325141","0.0-1.0-3.0-2.0-3.0","null"," ","null","feedback","","","","","","true","","","","","","","","","","","","",""
"","categorize-html","54","325684","0.0-1.0-3.0-2.0-4.0","537.9250000696629","<p>X</p>","32","n-back","false","","75","-1","","true","true","2","","","","","","","","","","",""
"","html-keyboard-response","55","326438","0.0-1.0-3.0-2.0-5.0","98.01500011235476","Please press K.","32","feedback","","","","","","true","","","","","","","","","","","","",""
"","categorize-html","56","327567","0.0-1.0-3.0-2.0-6.0","1123.589999973774","<p>X</p>","75","n-back","true","","75","-1","","true","true","2","","","","","","","","","","",""
"","html-keyboard-response","57","328321","0.0-1.0-3.0-2.0-7.0","null","Correct!","null","feedback","","","","","","true","","","","","","","","","","","","",""
"","categorize-html","58","329827","0.0-1.0-3.0-2.0-8.0","null","<p>R</p>","null","n-back","false","","90","-1","","true","false","2","","","","","","","","","","",""
"","html-keyboard-response","59","330580","0.0-1.0-3.0-2.0-9.0","null"," ","null","feedback","","","","","","true","","","","","","","","","","","","",""
"","categorize-html","60","332087","0.0-1.0-3.0-2.0-10.0","null","<p>E</p>","null","n-back","false","","90","-1","","true","false","2","","","","","","","","","","",""
"","html-keyboard-response","61","332839","0.0-1.0-3.0-2.0-11.0","null"," ","null","feedback","","","","","","true","","","","","","","","","","","","",""
"","categorize-html","62","334347","0.0-1.0-3.0-2.0-12.0","null","<p>E</p>","null","n-back","false","","90","-1","","true","false","2","","","","","","","","","","",""
"","html-keyboard-response","63","335101","0.0-1.0-3.0-2.0-13.0","null"," ","null","feedback","","","","","","true","","","","","","","","","","","","",""
"","categorize-html","64","335918","0.0-1.0-3.0-2.0-14.0","812.0450000278652","<p>R</p>","75","n-back","false","","90","-1","","true","false","2","","","","","","","","","","",""
"","html-keyboard-response","65","336673","0.0-1.0-3.0-2.0-15.0","null","Not a match! Press nothing.","null","feedback","","","","","","true","","","","","","","","","","","","",""
"","categorize-html","66","338179","0.0-1.0-3.0-2.0-16.0","null","<p>X</p>","null","n-back","false","","90","-1","","true","false","2","","","","","","","","","","",""
"","html-keyboard-response","67","338938","0.0-1.0-3.0-2.0-17.0","null"," ","null","feedback","","","","","","true","","","","","","","","","","","","",""
"","categorize-html","68","340448","0.0-1.0-3.0-2.0-18.0","null","<p>E</p>","null","n-back","false","","90","-1","","true","false","2","","","","","","","","","","",""
"","html-keyboard-response","69","341202","0.0-1.0-3.0-2.0-19.0","null"," ","null","feedback","","","","","","true","","","","","","","","","","","","",""
"","html-keyboard-response","70","346408","0.0-1.0-3.0-3.0","5203.480000142008","<p>Your accuracy was <strong>80.00%</strong>.</p><p>You will need to be at least 80% accurate during the study to earn points.</p><p>Please remember that you will not receive feedback like this during the real experiment.</p><p>Press the space bar to continue.</p>","32","","","","","","80.00","true","","","","","","","","","","","","",""
"","html-keyboard-response","71","351463","0.0-1.0-4.0-0.0-0.0","5052.84500005655","<img src=""./static/img/fractal3.jpg"" width=""250"" height=""250""","32","","","","","","","","","","","","","","","","","","","",""
"","html-keyboard-response","72","358442","0.0-1.0-4.0-1.0-0.0","6976.5250000637025","<p>In this task, you will need to press <strong>K</strong> every time you see the same letter you saw <strong>3</strong> letters ago.</p> <p>If the letter on screen was not the one you saw <strong>3</strong> letters ago, do not press anything.</p><p>Pay attention! If you are not at least 80% accurate by the last practice game, you will not progress to the real experiment.</p><img src=./static/img/3-back.png><p>Press space to begin.</p>","32","","","","","","","","","","","","","","","","","","","",""
"","categorize-html","73","359948","0.0-1.0-4.0-2.0-0.0","null","<p>X</p>","null","n-back","false","","90","-1","","true","false","3","","","","","","","","","","",""
"","html-keyboard-response","74","360701","0.0-1.0-4.0-2.0-1.0","null"," ","null","feedback","","","","","","true","","","","","","","","","","","","",""
"","categorize-html","75","362210","0.0-1.0-4.0-2.0-2.0","null","<p>R</p>","null","n-back","false","","90","-1","","true","false","3","","","","","","","","","","",""
"","html-keyboard-response","76","362964","0.0-1.0-4.0-2.0-3.0","null"," ","null","feedback","","","","","","true","","","","","","","","","","","","",""
"","categorize-html","77","364471","0.0-1.0-4.0-2.0-4.0","null","<p>R</p>","null","n-back","false","","90","-1","","true","false","3","","","","","","","","","","",""
"","html-keyboard-response","78","365224","0.0-1.0-4.0-2.0-5.0","null"," ","null","feedback","","","","","","true","","","","","","","","","","","","",""
"","categorize-html","79","365595","0.0-1.0-4.0-2.0-6.0","359.00000017136335","<p>X</p>","75","n-back","true","","75","-1","","true","true","3","","","","","","","","","","",""
"","html-keyboard-response","80","366349","0.0-1.0-4.0-2.0-7.0","null","Correct!","null","feedback","","","","","","true","","","","","","","","","","","","",""
"","categorize-html","81","367854","0.0-1.0-4.0-2.0-8.0","null","<p>X</p>","null","n-back","false","","90","-1","","true","false","3","","","","","","","","","","",""
"","html-keyboard-response","82","368608","0.0-1.0-4.0-2.0-9.0","null"," ","null","feedback","","","","","","true","","","","","","","","","","","","",""
"","categorize-html","83","370117","0.0-1.0-4.0-2.0-10.0","null","<p>X</p>","null","n-back","false","","90","-1","","true","false","3","","","","","","","","","","",""
"","html-keyboard-response","84","370872","0.0-1.0-4.0-2.0-11.0","null"," ","null","feedback","","","","","","true","","","","","","","","","","","","",""
"","categorize-html","85","371337","0.0-1.0-4.0-2.0-12.0","461.11000003293157","<p>R</p>","75","n-back","false","","90","-1","","true","false","3","","","","","","","","","","",""
"","html-keyboard-response","86","372090","0.0-1.0-4.0-2.0-13.0","null","Not a match! Press nothing.","null","feedback","","","","","","true","","","","","","","","","","","","",""
"","categorize-html","87","373596","0.0-1.0-4.0-2.0-14.0","null","<p>E</p>","null","n-back","false","","90","-1","","true","false","3","","","","","","","","","","",""
"","html-keyboard-response","88","374350","0.0-1.0-4.0-2.0-15.0","null"," ","null","feedback","","","","","","true","","","","","","","","","","","","",""
"","categorize-html","89","375858","0.0-1.0-4.0-2.0-16.0","null","<p>E</p>","null","n-back","false","","90","-1","","true","false","3","","","","","","","","","","",""
"","html-keyboard-response","90","376612","0.0-1.0-4.0-2.0-17.0","null"," ","null","feedback","","","","","","true","","","","","","","","","","","","",""
"","categorize-html","91","378120","0.0-1.0-4.0-2.0-18.0","null","<p>R</p>","null","n-back","false","","75","-1","","true","true","3","","","","","","","","","","",""
"","html-keyboard-response","92","378872","0.0-1.0-4.0-2.0-19.0","null","Press <strong>K</strong> when you see a match.","null","feedback","","","","","","true","","","","","","","","","","","","",""
"","html-keyboard-response","93","414661","0.0-1.0-4.0-3.0","35785.57500010356","<p>Your accuracy was <strong>80.00%</strong>.</p><p>You will need to be at least 80% accurate during the study to earn points.</p><p>Please remember that you will not receive feedback like this during the real experiment.</p><p>Press the space bar to continue.</p>","75","","","","","","80.00","true","","","","","","","","","","","","",""
"","html-keyboard-response","94","416753","0.0-1.0-5.0-0.0","2088.270000182092","<p>Good job! You have reached 80% accuracy on this practice task. We will now move on.</p><p>[Press the space bar to continue.]</p>","32","instructions","","","","","100.00","","","","","","","","","","","","","",""
"","html-keyboard-response","95","419213","0.0-1.0-7.0-0.0-0.0-0.0","2456.9700001738966","<img src=""./static/img/fractal2.png"" width=""250"" height=""250""","32","","","","","","","","","","","","","","","","","","","",""
"","html-keyboard-response","96","488804","0.0-1.0-7.0-0.0-1.0-0.0","69589.27999995649","<p>This task is a combination of the two tasks you just practiced.</p><p>In this task, you will need to press <strong>K</strong> every time you see the same letter you saw 3 letters ago (we call this a ""3-back match"").</p> <p>If the letter on screen was not the one you saw 3 trials ago (not a ""3-back match""), do not press anything.</p><p>If you see a T, press <strong>H</strong> as fast as you can.</p><p>T's count in the sequence of letters for a 3-back match.</p><p>A T might be a 3-back match, but ignore that. Just press H when you see a T.</p><p>You will now be given six chances to practice this task until you are at least 80% accurate on it.</p><p>If you don't reach 80% accuracy in six attempts, you will not move on to the real experiment.</p><p>Press space to begin.</p>","32","","","","","","","","","","","","","","","","","","","",""
"","categorize-html","97","490327","0.0-1.0-7.0-0.0-2.0-0.0","null","<p>E</p>","null","combine","false","false","90","-1","","true","0","3","","","","","","","","","","",""
"","html-keyboard-response","98","491083","0.0-1.0-7.0-0.0-2.0-1.0","null"," ","null","feedback","","","","","","true","","","","","","","","","","","","",""
"","categorize-html","99","492600","0.0-1.0-7.0-0.0-2.0-2.0","null","<p>E</p>","null","combine","false","false","90","-1","","true","0","3","","","","","","","","","","",""
"","html-keyboard-response","100","493369","0.0-1.0-7.0-0.0-2.0-3.0","null"," ","null","feedback","","","","","","true","","","","","","","","","","","","",""
"","categorize-html","101","494898","0.0-1.0-7.0-0.0-2.0-4.0","null","<p>R</p>","null","combine","false","false","90","-1","","true","0","3","","","","","","","","","","",""
"","html-keyboard-response","102","495659","0.0-1.0-7.0-0.0-2.0-5.0","null"," ","null","feedback","","","","","","true","","","","","","","","","","","","",""
"","categorize-html","103","496612","0.0-1.0-7.0-0.0-2.0-6.0","948.0149999726564","<p>E</p>","75","combine","true","false","75","-1","","true","1","3","","","","","","","","","","",""
"","html-keyboard-response","104","497366","0.0-1.0-7.0-0.0-2.0-7.0","null","Correct!","null","feedback","","","","","","true","","","","","","","","","","","","",""
"","categorize-html","105","498871","0.0-1.0-7.0-0.0-2.0-8.0","null","<p>E</p>","null","combine","false","false","75","-1","","true","1","3","","","","","","","","","","",""
"","html-keyboard-response","106","499639","0.0-1.0-7.0-0.0-2.0-9.0","null","Press <strong>K</strong> when you see a match.","null","feedback","","","","","","true","","","","","","","","","","","","",""
"","categorize-html","107","501151","0.0-1.0-7.0-0.0-2.0-10.0","null","<p>E</p>","null","combine","false","false","90","-1","","true","0","3","","","","","","","","","","",""
"","html-keyboard-response","108","501907","0.0-1.0-7.0-0.0-2.0-11.0","null"," ","null","feedback","","","","","","true","","","","","","","","","","","","",""
"","categorize-html","109","503425","0.0-1.0-7.0-0.0-2.0-12.0","null","<p>R</p>","null","combine","false","false","90","-1","","true","0","3","","","","","","","","","","",""
"","html-keyboard-response","110","504195","0.0-1.0-7.0-0.0-2.0-13.0","null"," ","null","feedback","","","","","","true","","","","","","","","","","","","",""
"","categorize-html","111","505237","0.0-1.0-7.0-0.0-2.0-14.0","1037.345000077039","<p>E</p>","75","combine","true","false","75","-1","","true","1","3","","","","","","","","","","",""
"","html-keyboard-response","112","505990","0.0-1.0-7.0-0.0-2.0-15.0","null","Correct!","null","feedback","","","","","","true","","","","","","","","","","","","",""
"","categorize-html","113","507507","0.0-1.0-7.0-0.0-2.0-16.0","null","<p>E</p>","null","combine","false","false","75","-1","","true","1","3","","","","","","","","","","",""
"","html-keyboard-response","114","508275","0.0-1.0-7.0-0.0-2.0-17.0","null","Press <strong>K</strong> when you see a match.","null","feedback","","","","","","true","","","","","","","","","","","","",""
"","categorize-html","115","509787","0.0-1.0-7.0-0.0-2.0-18.0","null","<p>R</p>","null","combine","false","false","75","-1","","true","1","3","","","","","","","","","","",""
"","html-keyboard-response","116","510542","0.0-1.0-7.0-0.0-2.0-19.0","null","Press <strong>K</strong> when you see a match.","null","feedback","","","","","","true","","","","","","","","","","","","",""
"","categorize-html","117","512063","0.0-1.0-7.0-0.0-2.0-20.0","null","<p>R</p>","null","combine","false","false","90","-1","","true","0","3","","","","","","","","","","",""
"","html-keyboard-response","118","512817","0.0-1.0-7.0-0.0-2.0-21.0","null"," ","null","feedback","","","","","","true","","","","","","","","","","","","",""
"","categorize-html","119","514333","0.0-1.0-7.0-0.0-2.0-22.0","null","<p>E</p>","null","combine","false","false","75","-1","","true","1","3","","","","","","","","","","",""
"","html-keyboard-response","120","515089","0.0-1.0-7.0-0.0-2.0-23.0","685.825000051409","Press <strong>K</strong> when you see a match.","72","feedback","","","","","","true","","","","","","","","","","","","",""
"","categorize-html","121","516107","0.0-1.0-7.0-0.0-2.0-24.0","1013.3799999020994","<p>T</p>","72","combine","true","true","72","-1","","true","0","3","","","","","","","","","","",""
"","html-keyboard-response","122","516868","0.0-1.0-7.0-0.0-2.0-25.0","null","Correct!","null","feedback","","","","","","true","","","","","","","","","","","","",""
"","categorize-html","123","518374","0.0-1.0-7.0-0.0-2.0-26.0","null","<p>R</p>","null","combine","false","false","75","-1","","true","1","3","","","","","","","","","","",""
"","html-keyboard-response","124","519133","0.0-1.0-7.0-0.0-2.0-27.0","null","Press <strong>K</strong> when you see a match.","null","feedback","","","","","","true","","","","","","","","","","","","",""
"","categorize-html","125","520089","0.0-1.0-7.0-0.0-2.0-28.0","950.4400000441819","<p>T</p>","72","combine","true","true","72","-1","","true","0","3","","","","","","","","","","",""
"","html-keyboard-response","126","520852","0.0-1.0-7.0-0.0-2.0-29.0","null","Correct!","null","feedback","","","","","","true","","","","","","","","","","","","",""
"","html-keyboard-response","127","525429","0.0-1.0-7.0-1.0-0.0","4572.625000029802","<p> You were 60.00% accurate.</p><p>You are not at 80% accuracy yet.</p><p>Let's try this task again.</p><p>[Press the space bar to continue.]</p>","32","","","","","","60.00","","","","","","","","","","","","","",""
"","html-keyboard-response","128","539086","0.0-1.0-7.0-2.0-0.0","13654.649999924004","<p>You will get 5 more tries to get to 80% accuracy on this task.</p><p>[Press space bar to try again.]</p>","32","","","","","","","","","","1","","","","","","","","","",""
"","html-keyboard-response","129","908528","0.0-1.0-7.0-3.0-0.0-0.0","369436.18499999866","<img src=""./static/img/fractal2.png"" width=""250"" height=""250""","32","","","","","","","","","","","","","","","","","","","",""
"","html-keyboard-response","130","927392","0.0-1.0-7.0-3.0-1.0-0.0","18860.87500001304","<p>This task is a combination of the two tasks you just practiced.</p><p>In this task, you will need to press <strong>K</strong> every time you see the same letter you saw 3 letters ago (we call this a ""3-back match"").</p> <p>If the letter on screen was not the one you saw 3 trials ago (not a ""3-back match""), do not press anything.</p><p>If you see a T, press <strong>H</strong> as fast as you can.</p><p>T's count in the sequence of letters for a 3-back match.</p><p>A T might be a 3-back match, but ignore that. Just press H when you see a T.</p><p>You will now be given six chances to practice this task until you are at least 80% accurate on it.</p><p>If you don't reach 80% accuracy in six attempts, you will not move on to the real experiment.</p><p>Press space to begin.</p>","32","","","","","","","","","","","","","","","","","","","",""
"","categorize-html","131","928903","0.0-1.0-7.0-3.0-2.0-0.0","null","<p>R</p>","null","combine","false","false","90","-1","","true","0","3","","","","","","","","","","",""
"","html-keyboard-response","132","929670","0.0-1.0-7.0-3.0-2.0-1.0","null"," ","null","feedback","","","","","","true","","","","","","","","","","","","",""
"","categorize-html","133","931186","0.0-1.0-7.0-3.0-2.0-2.0","null","<p>E</p>","null","combine","false","false","90","-1","","true","0","3","","","","","","","","","","",""
"","html-keyboard-response","134","931946","0.0-1.0-7.0-3.0-2.0-3.0","null"," ","null","feedback","","","","","","true","","","","","","","","","","","","",""
"","categorize-html","135","932812","0.0-1.0-7.0-3.0-2.0-4.0","862.1249999850988","<p>T</p>","72","combine","false","true","90","-1","","true","0","3","","","","","","","","","","",""
"","html-keyboard-response","136","933569","0.0-1.0-7.0-3.0-2.0-5.0","null","Press <strong>H</strong> when you see a T.","null","feedback","","","","","","true","","","","","","","","","","","","",""
"","categorize-html","137","934843","0.0-1.0-7.0-3.0-2.0-6.0","1269.5799998473376","<p>R</p>","72","combine","false","false","75","-1","","true","1","3","","","","","","","","","","",""
"","html-keyboard-response","138","935598","0.0-1.0-7.0-3.0-2.0-7.0","null","Press <strong>K</strong> when you see a match.","null","feedback","","","","","","true","","","","","","","","","","","","",""
"","categorize-html","139","937004","0.0-1.0-7.0-3.0-2.0-8.0","1391.2499998696148","<p>E</p>","75","combine","true","false","75","-1","","true","1","3","","","","","","","","","","",""
"","html-keyboard-response","140","937774","0.0-1.0-7.0-3.0-2.0-9.0","null","Correct!","null","feedback","","","","","","true","","","","","","","","","","","","",""
"","categorize-html","141","938767","0.0-1.0-7.0-3.0-2.0-10.0","988.0349999293685","<p>T</p>","72","combine","false","true","75","-1","","true","0","3","","","","","","","","","","",""
"","html-keyboard-response","142","939534","0.0-1.0-7.0-3.0-2.0-11.0","null","Press <strong>H</strong> when you see a T.","null","feedback","","","","","","true","","","","","","","","","","","","",""
"","categorize-html","143","941057","0.0-1.0-7.0-3.0-2.0-12.0","null","<p>T</p>","null","combine","false","true","72","-1","","true","0","3","","","","","","","","","","",""
"","html-keyboard-response","144","941821","0.0-1.0-7.0-3.0-2.0-13.0","null","Press <strong>H</strong> when you see a T.","null","feedback","","","","","","true","","","","","","","","","","","","",""
"","categorize-html","145","943344","0.0-1.0-7.0-3.0-2.0-14.0","null","<p>E</p>","null","combine","false","false","75","-1","","true","1","3","","","","","","","","","","",""
"","html-keyboard-response","146","944113","0.0-1.0-7.0-3.0-2.0-15.0","null","Press <strong>K</strong> when you see a match.","null","feedback","","","","","","true","","","","","","","","","","","","",""
"","categorize-html","147","944939","0.0-1.0-7.0-3.0-2.0-16.0","821.9749999698251","<p>E</p>","72","combine","false","false","90","-1","","true","0","3","","","","","","","","","","",""
"","html-keyboard-response","148","945705","0.0-1.0-7.0-3.0-2.0-17.0","null","Not a match! Press nothing.","null","feedback","","","","","","true","","","","","","","","","","","","",""
"","categorize-html","149","947216","0.0-1.0-7.0-3.0-2.0-18.0","null","<p>R</p>","null","combine","false","false","90","-1","","true","0","3","","","","","","","","","","",""
"","html-keyboard-response","150","947975","0.0-1.0-7.0-3.0-2.0-19.0","null"," ","null","feedback","","","","","","true","","","","","","","","","","","","",""
"","categorize-html","151","949496","0.0-1.0-7.0-3.0-2.0-20.0","null","<p>X</p>","null","combine","false","false","90","-1","","true","0","3","","","","","","","","","","",""
"","html-keyboard-response","152","950251","0.0-1.0-7.0-3.0-2.0-21.0","null"," ","null","feedback","","","","","","true","","","","","","","","","","","","",""
"","categorize-html","153","951768","0.0-1.0-7.0-3.0-2.0-22.0","null","<p>E</p>","null","combine","false","false","75","-1","","true","1","3","","","","","","","","","","",""
"","html-keyboard-response","154","952529","0.0-1.0-7.0-3.0-2.0-23.0","null","Press <strong>K</strong> when you see a match.","null","feedback","","","","","","true","","","","","","","","","","","","",""
"","categorize-html","155","953606","0.0-1.0-7.0-3.0-2.0-24.0","1073.3349998481572","<p>X</p>","72","combine","false","false","90","-1","","true","0","3","","","","","","","","","","",""
"","html-keyboard-response","156","954374","0.0-1.0-7.0-3.0-2.0-25.0","null","Not a match! Press nothing.","null","feedback","","","","","","true","","","","","","","","","","","","",""
"","categorize-html","157","955027","0.0-1.0-7.0-3.0-2.0-26.0","649.1400001104921","<p>E</p>","75","combine","false","false","90","-1","","true","0","3","","","","","","","","","","",""
"","html-keyboard-response","158","955782","0.0-1.0-7.0-3.0-2.0-27.0","null","Not a match! Press nothing.","null","feedback","","","","","","true","","","","","","","","","","","","",""
"","categorize-html","159","957294","0.0-1.0-7.0-3.0-2.0-28.0","null","<p>R</p>","null","combine","false","false","90","-1","","true","0","3","","","","","","","","","","",""
"","html-keyboard-response","160","958062","0.0-1.0-7.0-3.0-2.0-29.0","null"," ","null","feedback","","","","","","true","","","","","","","","","","","","",""
"","html-keyboard-response","161","962166","0.0-1.0-7.0-4.0-0.0","4101.024999981746","<p> You were 40.00% accurate.</p><p>You are not at 80% accuracy yet.</p><p>Let's try this task again.</p><p>[Press the space bar to continue.]</p>","32","","","","","","40.00","","","","","","","","","","","","","",""
"","html-keyboard-response","162","965193","0.0-1.0-7.0-5.0-0.0","3024.3899999186397","<p>You will get 4 more tries to get to 80% accuracy on this task.</p><p>[Press space bar to try again.]</p>","32","","","","","","","","","","2","","","","","","","","","",""
"","html-keyboard-response","163","971959","0.0-1.0-7.0-6.0-0.0-0.0","6763.150000013411","<img src=""./static/img/fractal2.png"" width=""250"" height=""250""","32","","","","","","","","","","","","","","","","","","","",""
"","html-keyboard-response","164","1011813","0.0-1.0-7.0-6.0-1.0-0.0","39850.92499991879","<p>This task is a combination of the two tasks you just practiced.</p><p>In this task, you will need to press <strong>K</strong> every time you see the same letter you saw 3 letters ago (we call this a ""3-back match"").</p> <p>If the letter on screen was not the one you saw 3 trials ago (not a ""3-back match""), do not press anything.</p><p>If you see a T, press <strong>H</strong> as fast as you can.</p><p>T's count in the sequence of letters for a 3-back match.</p><p>A T might be a 3-back match, but ignore that. Just press H when you see a T.</p><p>You will now be given six chances to practice this task until you are at least 80% accurate on it.</p><p>If you don't reach 80% accuracy in six attempts, you will not move on to the real experiment.</p><p>Press space to begin.</p>","32","","","","","","","","","","","","","","","","","","","",""
"","categorize-html","165","1013321","0.0-1.0-7.0-6.0-2.0-0.0","null","<p>X</p>","null","combine","false","false","90","-1","","true","0","3","","","","","","","","","","",""
"","html-keyboard-response","166","1014081","0.0-1.0-7.0-6.0-2.0-1.0","null"," ","null","feedback","","","","","","true","","","","","","","","","","","","",""
"","categorize-html","167","1015598","0.0-1.0-7.0-6.0-2.0-2.0","null","<p>E</p>","null","combine","false","false","90","-1","","true","0","3","","","","","","","","","","",""
"","html-keyboard-response","168","1016365","0.0-1.0-7.0-6.0-2.0-3.0","null"," ","null","feedback","","","","","","true","","","","","","","","","","","","",""
"","categorize-html","169","1017878","0.0-1.0-7.0-6.0-2.0-4.0","null","<p>E</p>","null","combine","false","false","90","-1","","true","0","3","","","","","","","","","","",""
"","html-keyboard-response","170","1018636","0.0-1.0-7.0-6.0-2.0-5.0","null"," ","null","feedback","","","","","","true","","","","","","","","","","","","",""
"","categorize-html","171","1019495","0.0-1.0-7.0-6.0-2.0-6.0","856.0300001408905","<p>X</p>","75","combine","true","false","75","-1","","true","1","3","","","","","","","","","","",""
"","html-keyboard-response","172","1020254","0.0-1.0-7.0-6.0-2.0-7.0","null","Correct!","null","feedback","","","","","","true","","","","","","","","","","","","",""
"","categorize-html","173","1021768","0.0-1.0-7.0-6.0-2.0-8.0","null","<p>R</p>","null","combine","false","false","90","-1","","true","0","3","","","","","","","","","","",""
"","html-keyboard-response","174","1022523","0.0-1.0-7.0-6.0-2.0-9.0","null"," ","null","feedback","","","","","","true","","","","","","","","","","","","",""
"","categorize-html","175","1024050","0.0-1.0-7.0-6.0-2.0-10.0","null","<p>R</p>","null","combine","false","false","90","-1","","true","0","3","","","","","","","","","","",""
"","html-keyboard-response","176","1024815","0.0-1.0-7.0-6.0-2.0-11.0","null"," ","null","feedback","","","","","","true","","","","","","","","","","","","",""
"","categorize-html","177","1025979","0.0-1.0-7.0-6.0-2.0-12.0","1161.5299999248236","<p>E</p>","72","combine","false","false","90","-1","","true","0","3","","","","","","","","","","",""
"","html-keyboard-response","178","1026733","0.0-1.0-7.0-6.0-2.0-13.0","null","Not a match! Press nothing.","null","feedback","","","","","","true","","","","","","","","","","","","",""
"","categorize-html","179","1028249","0.0-1.0-7.0-6.0-2.0-14.0","null","<p>E</p>","null","combine","false","false","90","-1","","true","0","3","","","","","","","","","","",""
"","html-keyboard-response","180","1029022","0.0-1.0-7.0-6.0-2.0-15.0","null"," ","null","feedback","","","","","","true","","","","","","","","","","","","",""
"","categorize-html","181","1029771","0.0-1.0-7.0-6.0-2.0-16.0","735.819999827072","<p>T</p>","72","combine","true","true","72","-1","","true","0","3","","","","","","","","","","",""
"","html-keyboard-response","182","1030533","0.0-1.0-7.0-6.0-2.0-17.0","null","Correct!","null","feedback","","","","","","true","","","","","","","","","","","","",""
"","categorize-html","183","1031575","0.0-1.0-7.0-6.0-2.0-18.0","1038.3099999744445","<p>R</p>","75","combine","false","false","90","-1","","true","0","3","","","","","","","","","","",""
"","html-keyboard-response","184","1032338","0.0-1.0-7.0-6.0-2.0-19.0","null","Not a match! Press nothing.","null","feedback","","","","","","true","","","","","","","","","","","","",""
"","categorize-html","185","1033844","0.0-1.0-7.0-6.0-2.0-20.0","null","<p>E</p>","null","combine","false","false","75","-1","","true","1","3","","","","","","","","","","",""
"","html-keyboard-response","186","1034606","0.0-1.0-7.0-6.0-2.0-21.0","null","Press <strong>K</strong> when you see a match.","null","feedback","","","","","","true","","","","","","","","","","","","",""
"","categorize-html","187","1036131","0.0-1.0-7.0-6.0-2.0-22.0","null","<p>X</p>","null","combine","false","false","90","-1","","true","0","3","","","","","","","","","","",""
"","html-keyboard-response","188","1036889","0.0-1.0-7.0-6.0-2.0-23.0","null"," ","null","feedback","","","","","","true","","","","","","","","","","","","",""
"","categorize-html","189","1038401","0.0-1.0-7.0-6.0-2.0-24.0","null","<p>R</p>","null","combine","false","false","75","-1","","true","1","3","","","","","","","","","","",""
"","html-keyboard-response","190","1039162","0.0-1.0-7.0-6.0-2.0-25.0","null","Press <strong>K</strong> when you see a match.","null","feedback","","","","","","true","","","","","","","","","","","","",""
"","categorize-html","191","1039877","0.0-1.0-7.0-6.0-2.0-26.0","708.7250000331551","<p>T</p>","72","combine","true","true","72","-1","","true","0","3","","","","","","","","","","",""
"","html-keyboard-response","192","1040635","0.0-1.0-7.0-6.0-2.0-27.0","null","Correct!","null","feedback","","","","","","true","","","","","","","","","","","","",""
"","categorize-html","193","1041623","0.0-1.0-7.0-6.0-2.0-28.0","984.6349998842925","<p>X</p>","75","combine","true","false","75","-1","","true","1","3","","","","","","","","","","",""
"","html-keyboard-response","194","1042389","0.0-1.0-7.0-6.0-2.0-29.0","null","Correct!","null","feedback","","","","","","true","","","","","","","","","","","","",""
"","html-keyboard-response","195","1048267","0.0-1.0-7.0-7.0-0.0","5875.90999994427","<p> You were 60.00% accurate.</p><p>You are not at 80% accuracy yet.</p><p>Let's try this task again.</p><p>[Press the space bar to continue.]</p>","32","","","","","","60.00","","","","","","","","","","","","","",""
"","html-keyboard-response","196","1053066","0.0-1.0-7.0-8.0-0.0","4796.760000055656","<p>You will get 3 more tries to get to 80% accuracy on this task.</p><p>[Press space bar to try again.]</p>","32","","","","","","","","","","3","","","","","","","","","",""
"","html-keyboard-response","197","1059013","0.0-1.0-7.0-9.0-0.0-0.0","5944.855000125244","<img src=""./static/img/fractal2.png"" width=""250"" height=""250""","32","","","","","","","","","","","","","","","","","","","",""
"","html-keyboard-response","198","1115007","0.0-1.0-7.0-9.0-1.0-0.0","55990.22000003606","<p>This task is a combination of the two tasks you just practiced.</p><p>In this task, you will need to press <strong>K</strong> every time you see the same letter you saw 3 letters ago (we call this a ""3-back match"").</p> <p>If the letter on screen was not the one you saw 3 trials ago (not a ""3-back match""), do not press anything.</p><p>If you see a T, press <strong>H</strong> as fast as you can.</p><p>T's count in the sequence of letters for a 3-back match.</p><p>A T might be a 3-back match, but ignore that. Just press H when you see a T.</p><p>You will now be given six chances to practice this task until you are at least 80% accurate on it.</p><p>If you don't reach 80% accuracy in six attempts, you will not move on to the real experiment.</p><p>Press space to begin.</p>","32","","","","","","","","","","","","","","","","","","","",""
"","categorize-html","199","1116195","0.0-1.0-7.0-9.0-2.0-0.0","1182.9750000033528","<p>T</p>","72","combine","false","true","90","-1","","true","0","3","","","","","","","","","","",""
"","html-keyboard-response","200","1116955","0.0-1.0-7.0-9.0-2.0-1.0","null","Press <strong>H</strong> when you see a T.","null","feedback","","","","","","true","","","","","","","","","","","","",""
"","categorize-html","201","1118460","0.0-1.0-7.0-9.0-2.0-2.0","null","<p>E</p>","null","combine","false","false","90","-1","","true","0","3","","","","","","","","","","",""
"","html-keyboard-response","202","1119216","0.0-1.0-7.0-9.0-2.0-3.0","null"," ","null","feedback","","","","","","true","","","","","","","","","","","","",""
"","categorize-html","203","1120728","0.0-1.0-7.0-9.0-2.0-4.0","null","<p>X</p>","null","combine","false","false","90","-1","","true","0","3","","","","","","","","","","",""
"","html-keyboard-response","204","1121493","0.0-1.0-7.0-9.0-2.0-5.0","null"," ","null","feedback","","","","","","true","","","","","","","","","","","","",""
"","categorize-html","205","1123021","0.0-1.0-7.0-9.0-2.0-6.0","null","<p>E</p>","null","combine","false","false","90","-1","","true","0","3","","","","","","","","","","",""
"","html-keyboard-response","206","1123784","0.0-1.0-7.0-9.0-2.0-7.0","null"," ","null","feedback","","","","","","true","","","","","","","","","","","","",""
"","categorize-html","207","1125302","0.0-1.0-7.0-9.0-2.0-8.0","null","<p>R</p>","null","combine","false","false","90","-1","","true","0","3","","","","","","","","","","",""
"","html-keyboard-response","208","1126061","0.0-1.0-7.0-9.0-2.0-9.0","null"," ","null","feedback","","","","","","true","","","","","","","","","","","","",""
"","categorize-html","209","1126766","0.0-1.0-7.0-9.0-2.0-10.0","701.4800000470132","<p>E</p>","75","combine","false","false","90","-1","","true","0","3","","","","","","","","","","",""
"","html-keyboard-response","210","1127526","0.0-1.0-7.0-9.0-2.0-11.0","null","Not a match! Press nothing.","null","feedback","","","","","","true","","","","","","","","","","","","",""
"","categorize-html","211","1128710","0.0-1.0-7.0-9.0-2.0-12.0","1180.0700000021607","<p>R</p>","72","combine","false","false","90","-1","","true","0","3","","","","","","","","","","",""
"","html-keyboard-response","212","1129469","0.0-1.0-7.0-9.0-2.0-13.0","null","Not a match! Press nothing.","null","feedback","","","","","","true","","","","","","","","","","","","",""
"","categorize-html","213","1130998","0.0-1.0-7.0-9.0-2.0-14.0","null","<p>R</p>","null","combine","false","false","75","-1","","true","1","3","","","","","","","","","","",""
"","html-keyboard-response","214","1131772","0.0-1.0-7.0-9.0-2.0-15.0","null","Press <strong>K</strong> when you see a match.","null","feedback","","","","","","true","","","","","","","","","","","","",""
"","categorize-html","215","1133290","0.0-1.0-7.0-9.0-2.0-16.0","null","<p>E</p>","null","combine","false","false","75","-1","","true","1","3","","","","","","","","","","",""
"","html-keyboard-response","216","1134048","0.0-1.0-7.0-9.0-2.0-17.0","469.42500001750886","Press <strong>K</strong> when you see a match.","75","feedback","","","","","","true","","","","","","","","","","","","",""
"","categorize-html","217","1134520","0.0-1.0-7.0-9.0-2.0-18.0","467.1699998434633","<p>R</p>","72","combine","false","false","75","-1","","true","1","3","","","","","","","","","","",""
"","html-keyboard-response","218","1135286","0.0-1.0-7.0-9.0-2.0-19.0","null","Press <strong>K</strong> when you see a match.","null","feedback","","","","","","true","","","","","","","","","","","","",""
"","categorize-html","219","1135554","0.0-1.0-7.0-9.0-2.0-20.0","264.02000011876225","<p>T</p>","75","combine","false","true","72","-1","","true","0","3","","","","","","","","","","",""
"","html-keyboard-response","220","1136324","0.0-1.0-7.0-9.0-2.0-21.0","683.5250000003725","Press <strong>H</strong> when you see a T.","72","feedback","","","","","","true","","","","","","","","","","","","",""
"","categorize-html","221","1137837","0.0-1.0-7.0-9.0-2.0-22.0","null","<p>X</p>","null","combine","false","false","90","-1","","true","0","3","","","","","","","","","","",""
"","html-keyboard-response","222","1138591","0.0-1.0-7.0-9.0-2.0-23.0","null"," ","null","feedback","","","","","","true","","","","","","","","","","","","",""
"","categorize-html","223","1140106","0.0-1.0-7.0-9.0-2.0-24.0","null","<p>E</p>","null","combine","false","false","90","-1","","true","0","3","","","","","","","","","","",""
"","html-keyboard-response","224","1140877","0.0-1.0-7.0-9.0-2.0-25.0","null"," ","null","feedback","","","","","","true","","","","","","","","","","","","",""
"","categorize-html","225","1142391","0.0-1.0-7.0-9.0-2.0-26.0","null","<p>T</p>","null","combine","false","true","75","-1","","true","0","3","","","","","","","","","","",""
"","html-keyboard-response","226","1143158","0.0-1.0-7.0-9.0-2.0-27.0","508.19500000216067","Press <strong>H</strong> when you see a T.","75","feedback","","","","","","true","","","","","","","","","","","","",""
"","categorize-html","227","1143766","0.0-1.0-7.0-9.0-2.0-28.0","604.7799999359995","<p>R</p>","72","combine","false","false","90","-1","","true","0","3","","","","","","","","","","",""
"","html-keyboard-response","228","1144524","0.0-1.0-7.0-9.0-2.0-29.0","null","Not a match! Press nothing.","null","feedback","","","","","","true","","","","","","","","","","","","",""
"","html-keyboard-response","229","1146654","0.0-1.0-7.0-10.0-0.0","2126.1400000657886","<p> You were 20.00% accurate.</p><p>You are not at 80% accuracy yet.</p><p>Let's try this task again.</p><p>[Press the space bar to continue.]</p>","32","","","","","","20.00","","","","","","","","","","","","","",""
"","html-keyboard-response","230","1150526","0.0-1.0-7.0-11.0-0.0","3870.0000001117587","<p>You will get 2 more tries to get to 80% accuracy on this task.</p><p>[Press space bar to try again.]</p>","32","","","","","","","","","","4","","","","","","","","","",""
"","html-keyboard-response","231","1153534","0.0-1.0-7.0-12.0-0.0-0.0","3003.6400000099093","<img src=""./static/img/fractal2.png"" width=""250"" height=""250""","32","","","","","","","","","","","","","","","","","","","",""
"","html-keyboard-response","232","1252179","0.0-1.0-7.0-12.0-1.0-0.0","98641.16999995895","<p>This task is a combination of the two tasks you just practiced.</p><p>In this task, you will need to press <strong>K</strong> every time you see the same letter you saw 3 letters ago (we call this a ""3-back match"").</p> <p>If the letter on screen was not the one you saw 3 trials ago (not a ""3-back match""), do not press anything.</p><p>If you see a T, press <strong>H</strong> as fast as you can.</p><p>T's count in the sequence of letters for a 3-back match.</p><p>A T might be a 3-back match, but ignore that. Just press H when you see a T.</p><p>You will now be given six chances to practice this task until you are at least 80% accurate on it.</p><p>If you don't reach 80% accuracy in six attempts, you will not move on to the real experiment.</p><p>Press space to begin.</p>","32","","","","","","","","","","","","","","","","","","","",""
"","categorize-html","233","1253696","0.0-1.0-7.0-12.0-2.0-0.0","null","<p>R</p>","null","combine","false","false","90","-1","","true","0","3","","","","","","","","","","",""
"","html-keyboard-response","234","1254453","0.0-1.0-7.0-12.0-2.0-1.0","null"," ","null","feedback","","","","","","true","","","","","","","","","","","","",""
"","categorize-html","235","1255387","0.0-1.0-7.0-12.0-2.0-2.0","931.8899998907","<p>T</p>","32","combine","false","true","90","-1","","true","0","3","","","","","","","","","","",""
"","html-keyboard-response","236","1256159","0.0-1.0-7.0-12.0-2.0-3.0","null","Please press K or H.","null","feedback","","","","","","true","","","","","","","","","","","","",""
"","categorize-html","237","1257676","0.0-1.0-7.0-12.0-2.0-4.0","null","<p>R</p>","null","combine","false","false","90","-1","","true","0","3","","","","","","","","","","",""
"","html-keyboard-response","238","1258430","0.0-1.0-7.0-12.0-2.0-5.0","null"," ","null","feedback","","","","","","true","","","","","","","","","","","","",""
"","categorize-html","239","1259959","0.0-1.0-7.0-12.0-2.0-6.0","null","<p>X</p>","null","combine","false","false","90","-1","","true","0","3","","","","","","","","","","",""
"","html-keyboard-response","240","1260737","0.0-1.0-7.0-12.0-2.0-7.0","null"," ","null","feedback","","","","","","true","","","","","","","","","","","","",""
"","categorize-html","241","1261379","0.0-1.0-7.0-12.0-2.0-8.0","637.4499998055398","<p>T</p>","72","combine","false","true","75","-1","","true","0","3","","","","","","","","","","",""
"","html-keyboard-response","242","1262147","0.0-1.0-7.0-12.0-2.0-9.0","null","Press <strong>H</strong> when you see a T.","null","feedback","","","","","","true","","","","","","","","","","","","",""
"","categorize-html","243","1263482","0.0-1.0-7.0-12.0-2.0-10.0","1326.5800001099706","<p>R</p>","75","combine","true","false","75","-1","","true","1","3","","","","","","","","","","",""
"","html-keyboard-response","244","1264237","0.0-1.0-7.0-12.0-2.0-11.0","null","Correct!","null","feedback","","","","","","true","","","","","","","","","","","","",""
"","categorize-html","245","1265756","0.0-1.0-7.0-12.0-2.0-12.0","null","<p>E</p>","null","combine","false","false","90","-1","","true","0","3","","","","","","","","","","",""
"","html-keyboard-response","246","1266515","0.0-1.0-7.0-12.0-2.0-13.0","null"," ","null","feedback","","","","","","true","","","","","","","","","","","","",""
"","categorize-html","247","1267192","0.0-1.0-7.0-12.0-2.0-14.0","672.8050000965595","<p>R</p>","72","combine","false","false","90","-1","","true","0","3","","","","","","","","","","",""
"","html-keyboard-response","248","1267956","0.0-1.0-7.0-12.0-2.0-15.0","null","Not a match! Press nothing.","null","feedback","","","","","","true","","","","","","","","","","","","",""
"","categorize-html","249","1268779","0.0-1.0-7.0-12.0-2.0-16.0","819.1000001970679","<p>R</p>","75","combine","true","false","75","-1","","true","1","3","","","","","","","","","","",""
"","html-keyboard-response","250","1269538","0.0-1.0-7.0-12.0-2.0-17.0","null","Correct!","null","feedback","","","","","","true","","","","","","","","","","","","",""
"","categorize-html","251","1271043","0.0-1.0-7.0-12.0-2.0-18.0","null","<p>R</p>","null","combine","false","false","90","-1","","true","0","3","","","","","","","","","","",""
"","html-keyboard-response","252","1271802","0.0-1.0-7.0-12.0-2.0-19.0","null"," ","null","feedback","","","","","","true","","","","","","","","","","","","",""
"","categorize-html","253","1273326","0.0-1.0-7.0-12.0-2.0-20.0","null","<p>E</p>","null","combine","false","false","90","-1","","true","0","3","","","","","","","","","","",""
"","html-keyboard-response","254","1274084","0.0-1.0-7.0-12.0-2.0-21.0","null"," ","null","feedback","","","","","","true","","","","","","","","","","","","",""
"","categorize-html","255","1275606","0.0-1.0-7.0-12.0-2.0-22.0","null","<p>E</p>","null","combine","false","false","90","-1","","true","0","3","","","","","","","","","","",""
"","html-keyboard-response","256","1276367","0.0-1.0-7.0-12.0-2.0-23.0","null"," ","null","feedback","","","","","","true","","","","","","","","","","","","",""
"","categorize-html","257","1277196","0.0-1.0-7.0-12.0-2.0-24.0","824.8450001701713","<p>T</p>","72","combine","true","true","72","-1","","true","0","3","","","","","","","","","","",""
"","html-keyboard-response","258","1277959","0.0-1.0-7.0-12.0-2.0-25.0","null","Correct!","null","feedback","","","","","","true","","","","","","","","","","","","",""
"","categorize-html","259","1279469","0.0-1.0-7.0-12.0-2.0-26.0","null","<p>E</p>","null","combine","false","false","75","-1","","true","1","3","","","","","","","","","","",""
"","html-keyboard-response","260","1280232","0.0-1.0-7.0-12.0-2.0-27.0","null","Press <strong>K</strong> when you see a match.","null","feedback","","","","","","true","","","","","","","","","","","","",""
"","categorize-html","261","1281747","0.0-1.0-7.0-12.0-2.0-28.0","null","<p>R</p>","null","combine","false","false","90","-1","","true","0","3","","","","","","","","","","",""
"","html-keyboard-response","262","1282506","0.0-1.0-7.0-12.0-2.0-29.0","null"," ","null","feedback","","","","","","true","","","","","","","","","","","","",""
"","html-keyboard-response","263","1289737","0.0-1.0-7.0-16.0-0.0","7227.7150000445545","<p>Good job! You have reached 80% accuracy on this practice task. We will now move on.</p><p>[Press the space bar to continue.]</p>","32","debrief","","","","","","","","","","","","","","","","","","",""
"","html-keyboard-response","264","1375289","0.0-1.0-8.0-0.0-0.0","85547.4099998828","<p>Please read these instructions carefully, as you will be tested on your understanding of them.</p><p>Before each round begins, you will be asked how many points is a fair wage to be at least 80% accurate at one of the tasks you just practiced.</p><p>We want you to tell us truthfully how many points is a fair wage, and so we are using a payment process where <strong>telling the truth is the best strategy.</strong></p><p>This means that <strong>you have some control over what you will be paid</strong> at the end of the experiment.</p><p>Whenever given a choice, <strong> the best thing you can do is to always ask for what you consider to be a fair wage for at least 80% accuracy on the task.</strong></p><p>[Press the space bar to continue.]</p>","32","","","","","","","","","","","","","","","","","","","",""
"","html-keyboard-response","265","1410636","0.0-1.0-8.0-1.0-0.0","35340.55500011891","<p>What do we mean by ""fair wage""?</p><p>When you get hired to complete some work, you may ask for more or less payment based on how much you would enjoy doing that work.</p><p>For example, you might dislike mowing the lawn more than watering the garden, and may ask for more in return for mowing the lawn.</p><p>A fair wage for you is the amount of points you think it would be fair for you to receive in exchange for your completion of the task.</p><p>While you won't get paid exactly what you ask for, the best strategy is to ask for what you truly believe is a fair wage for you.</p><p>We're not going to get into the exact reasons why until the end of the experiment.</p><p>[Press the space bar to continue.]</p>","32","","","","","","","","","","","","","","","","","","","",""
"","html-keyboard-response","266","1469470","0.0-1.0-8.0-2.0-0.0","58831.78999996744","<p>In short, once you report your fair wage, the computer will present you with a <strong> random offer.</strong></p><p>If you ask for fewer points than the computer offers you, then you will complete the task and be given the points the computer offered.</p><p>Say you ask for 3 points and the computer offers 4, then if you pass the task with at least 80% accuracy, you will be given 4 points.</p><p>If you ask for more points than the computer offers you, then you will do a different task on that round. The alternate task is worth <strong>1 point.</strong></p><p>For example, if you ask for 5 points and the computer offers 4 points, then you will do something else and be given 1 point.</p><p>There is no way to game the payment system. You will either get the computer's random point offer, or 1 point for an alternative task.</p><p>[Press the space bar to continue.]</p>","32","","","","","","","","","","","","","","","","","","","",""
"","html-slider-response","267","1486509","0.0-1.0-8.0-3.0-0.0-0.0","17031.985000008717","<img src=""./static/img/fractal3.jpg"" width=""250"" height=""250""","","instructs","","","","","","","","","","60","","","","","","","","",""
"","html-keyboard-response","268","1493148","0.0-1.0-8.0-3.0-1.0-0.0","6634.959999937564","<p>You asked for 3.40 points.</p><p>The computer offered 4.88 points.</p><p>Because the computer's offer is larger, you would move onto the pictured task and, if you achieved 80% accuracy on this task, you would be given 4.88 points at the end.</p><p>Press the space bar to continue.</p>","32","","","","","","","","","","","","","","","","","","","",""
"","html-slider-response","269","1498606","0.0-1.0-8.0-3.0-2.0-0.0","5451.065000146627","<img src=""./static/img/fractal3.jpg"" width=""250"" height=""250""","","instructs","","","","","","","","","","28","","","","","","","","",""
"","html-keyboard-response","270","1502233","0.0-1.0-8.0-3.0-3.0-0.0","3622.789999935776","<p>You asked for 2.12 points.</p><p>The computer offered 1.24 points.</p><p>Because the computer's offer is smaller, you would skip the pictured task and, if you achieved 80% accuracy on an alternate task, you would be given 1 point at the end.</p><p>Press the space bar to continue.</p>","32","","","","","","","","","","","","","","","","","","","",""
"","html-keyboard-response","271","1582905","0.0-1.0-8.0-4.0-0.0","80670.27999996208","<p><strong> Your best strategy is to always ask for what you believe is a fair wage for hitting at least 80% accuracy on 1 round of a task.</strong></p><p>We will now quiz you on the instructions you've just read. If you fail this quiz, you cannot participate in this experiment.</p><p>Press R if you'd like to read these instructions again.</p><p>Press the space bar if you'd like to move on to the quiz.</p>","32","","","","","","","","","","","","","","","","","","","",""
"","categorize-html","272","1599491","0.0-1.0-8.0-6.0-0.0","14575.940000126138","<p'font-size':15px>[Question 1 of 6]</p><p'font-size':25px>[Press A or B to indicate your answer.]</p><p'font-size':25px>Imagine you think a true fair wage is 2 points. Which amount should you ask for?</p><p 'font-size':25px> A. 4</p><p 'font-size':25px> B. 2</p>","66","quiz","true","","","","","","","","","","","","","","","","","",""
"","categorize-html","273","1616414","0.0-1.0-8.0-6.0-0.1","14914.57000002265","<p'font-size':15px>[Question 2 of 6]</p><p'font-size':25px>[Press A or B to indicate your answer.]</p><p><img src='./static/img/offer_big.png'></p><p'font-size':25px>What happens when you ask for <strong>more</strong> points than the computer offers?</p><p>A. You will start the pictured task, and get the points the computer offered if you pass that round.</p><p 'font-size':25px> B. You will start a different task and be given 1 point if you pass that round.</p>","66","quiz","true","","","","","","","","","","","","","","","","","",""
"","categorize-html","274","1632674","0.0-1.0-8.0-6.0-0.2","14241.350000025705","<p'font-size':15px>[Question 3 of 6]</p><p'font-size':25px>[Press A or B to indicate your answer.]</p><p'font-size':25px>Under which of the following two conditions will you do the pictured task?</p><p>A. When you ask for 2 points, and the computer randomly offers 3 points.</p><p 'font-size':25px> B. When you ask for 2 points, and the computer randomly offers 1 point.</p>","65","quiz","true","","","","","","","","","","","","","","","","","",""
"","categorize-html","275","1642830","0.0-1.0-8.0-6.0-0.3","8142.680000048131","<p'font-size':15px>[Question 4 of 6]</p><p'font-size':25px>[Press A or B to indicate your answer.]</p><p><img src='./static/img/offer_small.png'></p><p'font-size':25px>What happens when you ask for <strong>fewer</strong> points than the computer offers?</p><p>A. You will start the task, and get the points the computer offered if you pass that round.</p><p 'font-size':25px> B. You will start a different task and be given 1 point if you pass that round.</p>","65","quiz","true","","","","","","","","","","","","","","","","","",""
"","categorize-html","276","1652686","0.0-1.0-8.0-6.0-0.4","7836.709999945015","<p'font-size':15px>[Question 5 of 6]</p><p'font-size':25px>[Press A or B to indicate your answer.]</p><p'font-size':25px>Under which of the following two conditions will you <strong>not</strong> do the pictured task?</p><p>A. When you ask for 3 points, and the computer randomly offers 2 points.</p><p 'font-size':25px> B. When you ask for 3 points, and the computer randomly offers 4 points.</p>","65","quiz","true","","","","","","","","","","","","","","","","","",""
"","categorize-html","277","1659276","0.0-1.0-8.0-6.0-0.5","4586.164999986067","<p'font-size':15px>[Question 6 of 6]</p><p'font-size':25px>[Press A or B to indicate your answer.]</p><p'font-size':25px>Which is the correct strategy for asking for points?</p><p>A. Ask for as many points as possible.</p><p 'font-size':25px> B. Tell the truth about what is a fair wage for you.</p>","66","quiz","true","","","","","","","","","","","","","","","","","",""
"","html-keyboard-response","278","1661566","0.0-1.0-8.0-7.0-0.0","2286.9649999774992","<p>Great job! We will now begin the real experiment.</p><p>[Press the space bar to continue.]</p>","32","BDMquiz","","","","","","","","","","","100","","","","","","","",""
"","html-keyboard-response","279","1674577","0.0-1.0-9.0-0.0","13007.725000148639","<p>The real experiment will now start. </p><p>For each round of the experiment, you will be asked how many points you would like to earn to complete a task.</p><p>If you ask for more points than a randomly generated number, you will not complete that task. </p><p>Instead, you will complete a different task and earn 1 point.</p><p>At the end of the experiment, the points you earn will be counted and turned into a bonus payment. $$</p><p>[Press the space bar to continue.]</p>","32","instructions","","","","","","","","","","","","","","","","","","",""
"","html-keyboard-response","280","1701515","0.0-1.0-10.0-0.0","26935.10499992408","<p>Pay attention! If you are not at least 80% accurate, you will not earn points for completing each task.</p><p>You will not be getting the same amount of feedback on your performance in the real experiment.</p><p>If you press a button, the stimulus on screen will turn red to show you that the computer registered your response.</p><p>If we can tell that you are not paying attention (not accurate enough or not responding quickly enough), then this HIT will end early and you will earn a smaller payment. $$</p><p>[Press the space bar to begin the real experiment.]</p>","32","instructions","","","","","","","","","","","","","","","","","","",""
"","html-slider-response","281","1731527","0.0-2.0-0.0-0.0","null","<img src=""./static/img/fractal2.png"" width=""250"" height=""250""","","BDM","","","","0","","","","","","null","","47.09226786188354","","","","","","",""
"","html-keyboard-response","282","1761541","0.0-2.0-1.0-0.0","null","<p> You did not respond in time. You will do the following task to earn 1 point. </p><img src=""./static/img/fractal1.jpg"" width=""250"" height=""250""location ='center'></img><p>[Press the space bar to continue.]</p>","null","","","","","","","","","","","","","","","","","","","",""
"","html-keyboard-response","283","1761657","0.0-2.0-3.0-0.0","null","+","null","","","","","","","","","","","","","","","","","","","",""
"","html-keyboard-response","284","1790468","0.0-2.0-3.0-1.0-0.0","28805.859999964014","<p>In this task, you will need to press <strong>H</strong> every time you see the target letter <strong>T</strong>. </p><p>You must respond while the letter is on screen or your answer will not count.</p><p> Pay attention! If you are not at least 80% accurate, you will not earn points for completing this task.</p> <p>Press space to begin.</p>","32","instructions","","","","","","","","","","","","","","","","","","",""
"","categorize-html","285","1791981","0.0-2.0-3.0-2.0-0.0","null","<p>E</p>","null","detection","false","false","90","0","","","","","","","","","0","","","","","",""
"","html-keyboard-response","286","1791991","0.0-2.0-3.0-2.0-1.0","null","<p style=""color: red"">E</p>","null","feedback","","","","","","","","","","","","","","","","","","",""
"","html-keyboard-response","287","1792294","0.0-2.0-3.0-2.0-2.0","null"," ","null","ITI","","","","","","","","","","","","","","","","","","",""
"","categorize-html","288","1793815","0.0-2.0-3.0-2.0-3.0","null","<p>X</p>","null","detection","false","false","90","0","","","","","","","","","2","","","","","",""
"","html-keyboard-response","289","1793823","0.0-2.0-3.0-2.0-4.0","null","<p style=""color: red"">X</p>","null","feedback","","","","","","","","","","","","","","","","","","",""
"","html-keyboard-response","290","1794132","0.0-2.0-3.0-2.0-5.0","null"," ","null","ITI","","","","","","","","","","","","","","","","","","",""
"","categorize-html","291","1795655","0.0-2.0-3.0-2.0-6.0","null","<p>R</p>","null","detection","false","false","90","0","","","","","","","","","1","","","","","",""
"","html-keyboard-response","292","1795663","0.0-2.0-3.0-2.0-7.0","null","<p style=""color: red"">R</p>","null","feedback","","","","","","","","","","","","","","","","","","",""
"","html-keyboard-response","293","1795971","0.0-2.0-3.0-2.0-8.0","null"," ","null","ITI","","","","","","","","","","","","","","","","","","",""
"","categorize-html","294","1797498","0.0-2.0-3.0-2.0-9.0","null","<p>R</p>","null","detection","false","false","90","0","","","","","","","","","1","","","","","",""
"","html-keyboard-response","295","1797505","0.0-2.0-3.0-2.0-10.0","null","<p style=""color: red"">R</p>","null","feedback","","","","","","","","","","","","","","","","","","",""
"","html-keyboard-response","296","1797829","0.0-2.0-3.0-2.0-11.0","null"," ","null","ITI","","","","","","","","","","","","","","","","","","",""
"","categorize-html","297","1798715","0.0-2.0-3.0-2.0-12.0","881.1249998398125","<p>T</p>","72","detection","true","true","72","0","","","","","","","","","3","","","","","",""
"","html-keyboard-response","298","1799338","0.0-2.0-3.0-2.0-13.0","null","<p style=""color: red"">T</p>","null","feedback","","","","","","","","","","","","","","","","","","",""
"","html-keyboard-response","299","1799659","0.0-2.0-3.0-2.0-14.0","null"," ","null","ITI","","","","","","","","","","","","","","","","","","",""
"","categorize-html","300","1800615","0.0-2.0-3.0-2.0-15.0","949.1399999242276","<p>T</p>","72","detection","true","true","72","0","","","","","","","","","3","","","","","",""
"","html-keyboard-response","301","1801174","0.0-2.0-3.0-2.0-16.0","null","<p style=""color: red"">T</p>","null","feedback","","","","","","","","","","","","","","","","","","",""
"","html-keyboard-response","302","1801489","0.0-2.0-3.0-2.0-17.0","null"," ","null","ITI","","","","","","","","","","","","","","","","","","",""
"","categorize-html","303","1802283","0.0-2.0-3.0-2.0-18.0","789.5850001368672","<p>X</p>","75","detection","false","false","90","0","","","","","","","","","2","","","","","",""
"","html-keyboard-response","304","1803011","0.0-2.0-3.0-2.0-19.0","null","<p style=""color: red"">X</p>","null","feedback","","","","","","","","","","","","","","","","","","",""
"","html-keyboard-response","305","1803327","0.0-2.0-3.0-2.0-20.0","null"," ","null","ITI","","","","","","","","","","","","","","","","","","",""
"","categorize-html","306","1804842","0.0-2.0-3.0-2.0-21.0","null","<p>R</p>","null","detection","false","false","90","0","","","","","","","","","1","","","","","",""
"","html-keyboard-response","307","1804849","0.0-2.0-3.0-2.0-22.0","null","<p style=""color: red"">R</p>","null","feedback","","","","","","","","","","","","","","","","","","",""
"","html-keyboard-response","308","1805156","0.0-2.0-3.0-2.0-23.0","null"," ","null","ITI","","","","","","","","","","","","","","","","","","",""
"","categorize-html","309","1806672","0.0-2.0-3.0-2.0-24.0","null","<p>X</p>","null","detection","false","false","90","0","","","","","","","","","2","","","","","",""
"","html-keyboard-response","310","1806682","0.0-2.0-3.0-2.0-25.0","null","<p style=""color: red"">X</p>","null","feedback","","","","","","","","","","","","","","","","","","",""
"","html-keyboard-response","311","1806992","0.0-2.0-3.0-2.0-26.0","null"," ","null","ITI","","","","","","","","","","","","","","","","","","",""
"","categorize-html","312","1808503","0.0-2.0-3.0-2.0-27.0","null","<p>R</p>","null","detection","false","false","90","0","","","","","","","","","1","","","","","",""
"","html-keyboard-response","313","1808513","0.0-2.0-3.0-2.0-28.0","null","<p style=""color: red"">R</p>","null","feedback","","","","","","","","","","","","","","","","","","",""
"","html-keyboard-response","314","1808817","0.0-2.0-3.0-2.0-29.0","null"," ","null","ITI","","","","","","","","","","","","","","","","","","",""
"","categorize-html","315","1809703","0.0-2.0-3.0-2.0-30.0","880.6750001385808","<p>T</p>","72","detection","true","true","72","0","","","","","","","","","3","","","","","",""
"","html-keyboard-response","316","1810340","0.0-2.0-3.0-2.0-31.0","null","<p style=""color: red"">T</p>","null","feedback","","","","","","","","","","","","","","","","","","",""
"","html-keyboard-response","317","1810663","0.0-2.0-3.0-2.0-32.0","null"," ","null","ITI","","","","","","","","","","","","","","","","","","",""
"","categorize-html","318","1811649","0.0-2.0-3.0-2.0-33.0","981.0500000603497","<p>R</p>","72","detection","false","false","90","0","","","","","","","","","1","","","","","",""
"","html-keyboard-response","319","1812180","0.0-2.0-3.0-2.0-34.0","null","<p style=""color: red"">R</p>","null","feedback","","","","","","","","","","","","","","","","","","",""
"","html-keyboard-response","320","1812497","0.0-2.0-3.0-2.0-35.0","null"," ","null","ITI","","","","","","","","","","","","","","","","","","",""
"","categorize-html","321","1814025","0.0-2.0-3.0-2.0-36.0","null","<p>X</p>","null","detection","false","false","90","0","","","","","","","","","2","","","","","",""
"","html-keyboard-response","322","1814032","0.0-2.0-3.0-2.0-37.0","null","<p style=""color: red"">X</p>","null","feedback","","","","","","","","","","","","","","","","","","",""
"","html-keyboard-response","323","1814349","0.0-2.0-3.0-2.0-38.0","null"," ","null","ITI","","","","","","","","","","","","","","","","","","",""
"","categorize-html","324","1815863","0.0-2.0-3.0-2.0-39.0","null","<p>E</p>","null","detection","false","false","90","0","","","","","","","","","0","","","","","",""
"","html-keyboard-response","325","1815875","0.0-2.0-3.0-2.0-40.0","null","<p style=""color: red"">E</p>","null","feedback","","","","","","","","","","","","","","","","","","",""
"","html-keyboard-response","326","1816178","0.0-2.0-3.0-2.0-41.0","null"," ","null","ITI","","","","","","","","","","","","","","","","","","",""
"","categorize-html","327","1817706","0.0-2.0-3.0-2.0-42.0","null","<p>R</p>","null","detection","false","false","90","0","","","","","","","","","1","","","","","",""
"","html-keyboard-response","328","1817713","0.0-2.0-3.0-2.0-43.0","null","<p style=""color: red"">R</p>","null","feedback","","","","","","","","","","","","","","","","","","",""
"","html-keyboard-response","329","1818031","0.0-2.0-3.0-2.0-44.0","null"," ","null","ITI","","","","","","","","","","","","","","","","","","",""
"","html-keyboard-response","330","1824862","0.0-2.0-3.0-3.0","6827.310000080615","<p>Great job! You earned 1 point(s) from this task.</p> </p><p>Press the space bar to continue. </p>","32","debrief","","","","","","","","","","","","","","","","","","",""
"","html-slider-response","331","1842228","0.0-2.0-4.0-0.0","17359.65499980375","<img src=""./static/img/fractal2.png"" width=""250"" height=""250""","","BDM","","","","1","","","","","","12","","66.52845697941574","","","","","","",""
"","html-keyboard-response","332","1851429","0.0-2.0-5.0-0.0","9197.884999914095","<p style='font-size':25px> You want <strong> 1.48 </strong> points. </p> <p> The computer offers <strong>4.20</strong> points. </p><p> You will be given 4.20 points if you achieve at least 80% accuracy on this task. </p><img src=""./static/img/fractal2.png"" width=""250"" height=""250"" location='center'></img><p>[Press the space bar to continue.]</p>","32","","","","","","","","","","","","","","","","","","","",""
"","html-keyboard-response","333","1851542","0.0-2.0-6.0-0.0","null","+","null","","","","","","","","","","","","","","","","","","","",""
"","html-keyboard-response","334","1856526","0.0-2.0-6.0-1.0-0.0","4980.449999915436","<p>In this task, you will need to press <strong>K</strong> every time you see the same letter you saw 3 letters ago.</p> <p>If the image on screen was not the one you saw 3 letters ago, do not press anything.</p><p>If you see a T, press <strong>H</strong> as fast as you can.</p><p>Pay attention! If you are not at least 80% accurate, you will not earn points for completing this task.</p> <p>Press space to begin.</p>","32","","","","","","","","","","","","","","","","","","","",""
"","categorize-html","335","1858046","0.0-2.0-6.0-2.0-0.0","null","<p>E</p>","null","combine","false","false","90","1","","","0","3","","","","","","","","","","",""
"","html-keyboard-response","336","1858054","0.0-2.0-6.0-2.0-1.0","null","<p style=""color: red"">E</p>","null","feedback","","","","","","","","","","","","","","","","","","",""
"","html-keyboard-response","337","1858361","0.0-2.0-6.0-2.0-2.0","null"," ","null","ITI","","","","","","","","","","","","","","","","","","",""
"","categorize-html","338","1859874","0.0-2.0-6.0-2.0-3.0","null","<p>X</p>","null","combine","false","false","90","1","","","0","3","","","","","","","","","","",""
"","html-keyboard-response","339","1859882","0.0-2.0-6.0-2.0-4.0","null","<p style=""color: red"">X</p>","null","feedback","","","","","","","","","","","","","","","","","","",""
"","html-keyboard-response","340","1860194","0.0-2.0-6.0-2.0-5.0","null"," ","null","ITI","","","","","","","","","","","","","","","","","","",""
"","categorize-html","341","1861709","0.0-2.0-6.0-2.0-6.0","null","<p>X</p>","null","combine","false","false","90","1","","","0","3","","","","","","","","","","",""
"","html-keyboard-response","342","1861716","0.0-2.0-6.0-2.0-7.0","null","<p style=""color: red"">X</p>","null","feedback","","","","","","","","","","","","","","","","","","",""
"","html-keyboard-response","343","1862035","0.0-2.0-6.0-2.0-8.0","null"," ","null","ITI","","","","","","","","","","","","","","","","","","",""
"","categorize-html","344","1862735","0.0-2.0-6.0-2.0-9.0","695.2500001061708","<p>E</p>","72","combine","false","false","75","1","","","1","3","","","","","","","","","","",""
"","html-keyboard-response","345","1863542","0.0-2.0-6.0-2.0-10.0","null","<p style=""color: red"">E</p>","null","feedback","","","","","","","","","","","","","","","","","","",""
"","html-keyboard-response","346","1863854","0.0-2.0-6.0-2.0-11.0","null"," ","null","ITI","","","","","","","","","","","","","","","","","","",""
"","categorize-html","347","1864605","0.0-2.0-6.0-2.0-12.0","745.7600000780076","<p>E</p>","75","combine","false","false","90","1","","","0","3","","","","","","","","","","",""
"","html-keyboard-response","348","1865377","0.0-2.0-6.0-2.0-13.0","null","<p style=""color: red"">E</p>","null","feedback","","","","","","","","","","","","","","","","","","",""
"","html-keyboard-response","349","1865693","0.0-2.0-6.0-2.0-14.0","null"," ","null","ITI","","","","","","","","","","","","","","","","","","",""
"","categorize-html","350","1867047","0.0-2.0-6.0-2.0-15.0","1349.7150000184774","<p>E</p>","75","combine","false","false","90","1","","","0","3","","","","","","","","","","",""
"","html-keyboard-response","351","1867215","0.0-2.0-6.0-2.0-16.0","null","<p style=""color: red"">E</p>","null","feedback","","","","","","","","","","","","","","","","","","",""
"","html-keyboard-response","352","1867530","0.0-2.0-6.0-2.0-17.0","null"," ","null","ITI","","","","","","","","","","","","","","","","","","",""
"","categorize-html","353","1869058","0.0-2.0-6.0-2.0-18.0","null","<p>R</p>","null","combine","false","false","90","1","","","0","3","","","","","","","","","","",""
"","html-keyboard-response","354","1869065","0.0-2.0-6.0-2.0-19.0","null","<p style=""color: red"">R</p>","null","feedback","","","","","","","","","","","","","","","","","","",""
"","html-keyboard-response","355","1869374","0.0-2.0-6.0-2.0-20.0","null"," ","null","ITI","","","","","","","","","","","","","","","","","","",""
"","categorize-html","356","1870895","0.0-2.0-6.0-2.0-21.0","null","<p>E</p>","null","combine","false","false","75","1","","","1","3","","","","","","","","","","",""
"","html-keyboard-response","357","1870902","0.0-2.0-6.0-2.0-22.0","null","<p style=""color: red"">E</p>","null","feedback","","","","","","","","","","","","","","","","","","",""
"","html-keyboard-response","358","1871225","0.0-2.0-6.0-2.0-23.0","63.175000017508864"," ","75","ITI","","","","","","","","","","","","","","","","","","",""
"","categorize-html","359","1871819","0.0-2.0-6.0-2.0-24.0","588.9699999243021","<p>T</p>","72","combine","true","true","72","1","","","0","3","","","","","","","","","","",""
"","html-keyboard-response","360","1872742","0.0-2.0-6.0-2.0-25.0","null","<p style=""color: red"">T</p>","null","feedback","","","","","","","","","","","","","","","","","","",""
"","html-keyboard-response","361","1873063","0.0-2.0-6.0-2.0-26.0","null"," ","null","ITI","","","","","","","","","","","","","","","","","","",""
"","categorize-html","362","1874195","0.0-2.0-6.0-2.0-27.0","1126.894999993965","<p>R</p>","75","combine","true","false","75","1","","","1","3","","","","","","","","","","",""
"","html-keyboard-response","363","1874579","0.0-2.0-6.0-2.0-28.0","null","<p style=""color: red"">R</p>","null","feedback","","","","","","","","","","","","","","","","","","",""
"","html-keyboard-response","364","1874893","0.0-2.0-6.0-2.0-29.0","null"," ","null","ITI","","","","","","","","","","","","","","","","","","",""
"","categorize-html","365","1876418","0.0-2.0-6.0-2.0-30.0","null","<p>E</p>","null","combine","false","false","75","1","","","1","3","","","","","","","","","","",""
"","html-keyboard-response","366","1876425","0.0-2.0-6.0-2.0-31.0","null","<p style=""color: red"">E</p>","null","feedback","","","","","","","","","","","","","","","","","","",""
"","html-keyboard-response","367","1876730","0.0-2.0-6.0-2.0-32.0","null"," ","null","ITI","","","","","","","","","","","","","","","","","","",""
"","categorize-html","368","1877821","0.0-2.0-6.0-2.0-33.0","1086.3550000358373","<p>T</p>","72","combine","false","true","75","1","","","0","3","","","","","","","","","","",""
"","html-keyboard-response","369","1878238","0.0-2.0-6.0-2.0-34.0","null","<p style=""color: red"">T</p>","null","feedback","","","","","","","","","","","","","","","","","","",""
"","html-keyboard-response","370","1878553","0.0-2.0-6.0-2.0-35.0","null"," ","null","ITI","","","","","","","","","","","","","","","","","","",""
"","categorize-html","371","1880081","0.0-2.0-6.0-2.0-36.0","null","<p>E</p>","null","combine","false","false","90","1","","","0","3","","","","","","","","","","",""
"","html-keyboard-response","372","1880090","0.0-2.0-6.0-2.0-37.0","null","<p style=""color: red"">E</p>","null","feedback","","","","","","","","","","","","","","","","","","",""
"","html-keyboard-response","373","1880395","0.0-2.0-6.0-2.0-38.0","null"," ","null","ITI","","","","","","","","","","","","","","","","","","",""
"","categorize-html","374","1881303","0.0-2.0-6.0-2.0-39.0","903.690000064671","<p>T</p>","72","combine","true","true","72","1","","","0","3","","","","","","","","","","",""
"","html-keyboard-response","375","1881912","0.0-2.0-6.0-2.0-40.0","null","<p style=""color: red"">T</p>","null","feedback","","","","","","","","","","","","","","","","","","",""
"","html-keyboard-response","376","1882223","0.0-2.0-6.0-2.0-41.0","null"," ","null","ITI","","","","","","","","","","","","","","","","","","",""
"","categorize-html","377","1883272","0.0-2.0-6.0-2.0-42.0","1046.1799998302013","<p>R</p>","75","combine","false","false","90","1","","","0","3","","","","","","","","","","",""
"","html-keyboard-response","378","1883740","0.0-2.0-6.0-2.0-43.0","null","<p style=""color: red"">R</p>","null","feedback","","","","","","","","","","","","","","","","","","",""
"","html-keyboard-response","379","1884044","0.0-2.0-6.0-2.0-44.0","null"," ","null","ITI","","","","","","","","","","","","","","","","","","",""
"","html-keyboard-response","380","1886763","0.0-2.0-6.0-3.0","2715.624999953434","<p style='font-size:25px'>You were not accurate enough. You earned 0 points.</p> </p><p style='font-size:25px'>Press the space bar to continue. </p>","32","","","","","","","","","","","","","","","","","","","",""
"","html-slider-response","381","1909102","0.0-2.0-8.0-0.0","22332.449999870732","<img src=""./static/img/fractal2.png"" width=""250"" height=""250""","","BDM","","","","2","","","","","","8","","31.19708896601572","","","","","","",""
"","html-keyboard-response","382","1915181","0.0-2.0-9.0-0.0","6076.780000003055","<p style='font-size':25px> You want <strong> 1.32 </strong> points. </p> <p> The computer offers <strong>3.28</strong> points. </p><p> You will be given 3.28 points if you achieve at least 80% accuracy on this task. </p><img src=""./static/img/fractal2.png"" width=""250"" height=""250"" location='center'></img><p>[Press the space bar to continue.]</p>","32","","","","","","","","","","","","","","","","","","","",""
"","html-keyboard-response","383","1915291","0.0-2.0-10.0-0.0","null","+","null","","","","","","","","","","","","","","","","","","","",""
"","html-keyboard-response","384","1920637","0.0-2.0-10.0-1.0-0.0","5343.794999876991","<p>In this task, you will need to press <strong>K</strong> every time you see the same letter you saw 3 letters ago.</p> <p>If the image on screen was not the one you saw 3 letters ago, do not press anything.</p><p>If you see a T, press <strong>H</strong> as fast as you can.</p><p>Pay attention! If you are not at least 80% accurate, you will not earn points for completing this task.</p> <p>Press space to begin.</p>","32","","","","","","","","","","","","","","","","","","","",""
"","categorize-html","385","1922154","0.0-2.0-10.0-2.0-0.0","null","<p>E</p>","null","combine","false","false","90","2","","","0","3","","","","","","","","","","",""
"","html-keyboard-response","386","1922158","0.0-2.0-10.0-2.0-1.0","null","<p style=""color: red"">E</p>","null","feedback","","","","","","","","","","","","","","","","","","",""
"","html-keyboard-response","387","1922471","0.0-2.0-10.0-2.0-2.0","null"," ","null","ITI","","","","","","","","","","","","","","","","","","",""
"","categorize-html","388","1923994","0.0-2.0-10.0-2.0-3.0","null","<p>X</p>","null","combine","false","false","90","2","","","0","3","","","","","","","","","","",""
"","html-keyboard-response","389","1924001","0.0-2.0-10.0-2.0-4.0","null","<p style=""color: red"">X</p>","null","feedback","","","","","","","","","","","","","","","","","","",""
"","html-keyboard-response","390","1924315","0.0-2.0-10.0-2.0-5.0","null"," ","null","ITI","","","","","","","","","","","","","","","","","","",""
"","categorize-html","391","1925834","0.0-2.0-10.0-2.0-6.0","null","<p>E</p>","null","combine","false","false","90","2","","","0","3","","","","","","","","","","",""
"","html-keyboard-response","392","1925842","0.0-2.0-10.0-2.0-7.0","null","<p style=""color: red"">E</p>","null","feedback","","","","","","","","","","","","","","","","","","",""
"","html-keyboard-response","393","1926149","0.0-2.0-10.0-2.0-8.0","null"," ","null","ITI","","","","","","","","","","","","","","","","","","",""
"","categorize-html","394","1926990","0.0-2.0-10.0-2.0-9.0","836.7200000211596","<p>T</p>","72","combine","true","true","72","2","","","0","3","","","","","","","","","","",""
"","html-keyboard-response","395","1927665","0.0-2.0-10.0-2.0-10.0","null","<p style=""color: red"">T</p>","null","feedback","","","","","","","","","","","","","","","","","","",""
"","html-keyboard-response","396","1927971","0.0-2.0-10.0-2.0-11.0","null"," ","null","ITI","","","","","","","","","","","","","","","","","","",""
"","categorize-html","397","1929489","0.0-2.0-10.0-2.0-12.0","null","<p>R</p>","null","combine","false","false","90","2","","","0","3","","","","","","","","","","",""
"","html-keyboard-response","398","1929495","0.0-2.0-10.0-2.0-13.0","null","<p style=""color: red"">R</p>","null","feedback","","","","","","","","","","","","","","","","","","",""
"","html-keyboard-response","399","1929807","0.0-2.0-10.0-2.0-14.0","null"," ","null","ITI","","","","","","","","","","","","","","","","","","",""
"","categorize-html","400","1931319","0.0-2.0-10.0-2.0-15.0","null","<p>R</p>","null","combine","false","false","90","2","","","0","3","","","","","","","","","","",""
"","html-keyboard-response","401","1931325","0.0-2.0-10.0-2.0-16.0","null","<p style=""color: red"">R</p>","null","feedback","","","","","","","","","","","","","","","","","","",""
"","html-keyboard-response","402","1931643","0.0-2.0-10.0-2.0-17.0","null"," ","null","ITI","","","","","","","","","","","","","","","","","","",""
"","categorize-html","403","1932397","0.0-2.0-10.0-2.0-18.0","748.894999967888","<p>E</p>","75","combine","false","false","90","2","","","0","3","","","","","","","","","","",""
"","html-keyboard-response","404","1933162","0.0-2.0-10.0-2.0-19.0","null","<p style=""color: red"">E</p>","null","feedback","","","","","","","","","","","","","","","","","","",""
"","html-keyboard-response","405","1933481","0.0-2.0-10.0-2.0-20.0","null"," ","null","ITI","","","","","","","","","","","","","","","","","","",""
"","categorize-html","406","1934703","0.0-2.0-10.0-2.0-21.0","1211.9650000240654","<p>R</p>","75","combine","true","false","75","2","","","1","3","","","","","","","","","","",""
"","html-keyboard-response","407","1935005","0.0-2.0-10.0-2.0-22.0","null","<p style=""color: red"">R</p>","null","feedback","","","","","","","","","","","","","","","","","","",""
"","html-keyboard-response","408","1935314","0.0-2.0-10.0-2.0-23.0","null"," ","null","ITI","","","","","","","","","","","","","","","","","","",""
"","categorize-html","409","1936838","0.0-2.0-10.0-2.0-24.0","null","<p>R</p>","null","combine","false","false","75","2","","","1","3","","","","","","","","","","",""
"","html-keyboard-response","410","1936847","0.0-2.0-10.0-2.0-25.0","null","<p style=""color: red"">R</p>","null","feedback","","","","","","","","","","","","","","","","","","",""
"","html-keyboard-response","411","1937152","0.0-2.0-10.0-2.0-26.0","null"," ","null","ITI","","","","","","","","","","","","","","","","","","",""
"","categorize-html","412","1937883","0.0-2.0-10.0-2.0-27.0","726.4600000344217","<p>T</p>","72","combine","true","true","72","2","","","0","3","","","","","","","","","","",""
"","html-keyboard-response","413","1938676","0.0-2.0-10.0-2.0-28.0","null","<p style=""color: red"">T</p>","null","feedback","","","","","","","","","","","","","","","","","","",""
"","html-keyboard-response","414","1938989","0.0-2.0-10.0-2.0-29.0","null"," ","null","ITI","","","","","","","","","","","","","","","","","","",""
"","categorize-html","415","1939626","0.0-2.0-10.0-2.0-30.0","631.969999987632","<p>R</p>","75","combine","true","false","75","2","","","1","3","","","","","","","","","","",""
"","html-keyboard-response","416","1940502","0.0-2.0-10.0-2.0-31.0","null","<p style=""color: red"">R</p>","null","feedback","","","","","","","","","","","","","","","","","","",""
"","html-keyboard-response","417","1940817","0.0-2.0-10.0-2.0-32.0","null"," ","null","ITI","","","","","","","","","","","","","","","","","","",""
"","categorize-html","418","1942333","0.0-2.0-10.0-2.0-33.0","null","<p>X</p>","null","combine","false","false","90","2","","","0","3","","","","","","","","","","",""
"","html-keyboard-response","419","1942341","0.0-2.0-10.0-2.0-34.0","null","<p style=""color: red"">X</p>","null","feedback","","","","","","","","","","","","","","","","","","",""
"","html-keyboard-response","420","1942656","0.0-2.0-10.0-2.0-35.0","null"," ","null","ITI","","","","","","","","","","","","","","","","","","",""
"","categorize-html","421","1944182","0.0-2.0-10.0-2.0-36.0","null","<p>E</p>","null","combine","false","false","90","2","","","0","3","","","","","","","","","","",""
"","html-keyboard-response","422","1944188","0.0-2.0-10.0-2.0-37.0","null","<p style=""color: red"">E</p>","null","feedback","","","","","","","","","","","","","","","","","","",""
"","html-keyboard-response","423","1944493","0.0-2.0-10.0-2.0-38.0","null"," ","null","ITI","","","","","","","","","","","","","","","","","","",""
"","categorize-html","424","1945252","0.0-2.0-10.0-2.0-39.0","753.3350000157952","<p>T</p>","72","combine","true","true","72","2","","","0","3","","","","","","","","","","",""
"","html-keyboard-response","425","1946015","0.0-2.0-10.0-2.0-40.0","null","<p style=""color: red"">T</p>","null","feedback","","","","","","","","","","","","","","","","","","",""
"","html-keyboard-response","426","1946324","0.0-2.0-10.0-2.0-41.0","null"," ","null","ITI","","","","","","","","","","","","","","","","","","",""
"","categorize-html","427","1947407","0.0-2.0-10.0-2.0-42.0","1079.044999787584","<p>E</p>","75","combine","false","false","90","2","","","0","3","","","","","","","","","","",""
"","html-keyboard-response","428","1947837","0.0-2.0-10.0-2.0-43.0","null","<p style=""color: red"">E</p>","null","feedback","","","","","","","","","","","","","","","","","","",""
"","html-keyboard-response","429","1948152","0.0-2.0-10.0-2.0-44.0","null"," ","null","ITI","","","","","","","","","","","","","","","","","","",""
"","html-keyboard-response","430","1952459","0.0-2.0-10.0-3.0","4301.8700000829995","<p style='font-size:25px'>Great job! You earned 3.28 point(s) from this task.</p> </p><p style='font-size:25px'>Press the space bar to continue. </p>","32","","","","","","","","","","","","","","","","","","","",""
"","html-slider-response","431","1962426","0.0-2.0-12.0-0.0","9961.4049999509","<img src=""./static/img/fractal2.png"" width=""250"" height=""250""","","BDM","","","","3","","","","","","8","","99.10127930193336","","","","","","",""
"","html-keyboard-response","432","1971084","0.0-2.0-13.0-0.0","8654.210000066087","<p style='font-size':25px> You want <strong> 1.32 </strong> points. </p> <p> The computer offers <strong>3.56</strong> points. </p><p> You will be given 3.56 points if you achieve at least 80% accuracy on this task. </p><img src=""./static/img/fractal2.png"" width=""250"" height=""250"" location='center'></img><p>[Press the space bar to continue.]</p>","32","","","","","","","","","","","","","","","","","","","",""
"","html-keyboard-response","433","1971193","0.0-2.0-14.0-0.0","null","+","null","","","","","","","","","","","","","","","","","","","",""
"","html-keyboard-response","434","1973475","0.0-2.0-14.0-1.0-0.0","2279.469999950379","<p>In this task, you will need to press <strong>K</strong> every time you see the same letter you saw 3 letters ago.</p> <p>If the image on screen was not the one you saw 3 letters ago, do not press anything.</p><p>If you see a T, press <strong>H</strong> as fast as you can.</p><p>Pay attention! If you are not at least 80% accurate, you will not earn points for completing this task.</p> <p>Press space to begin.</p>","32","","","","","","","","","","","","","","","","","","","",""
"","categorize-html","435","1974983","0.0-2.0-14.0-2.0-0.0","null","<p>X</p>","null","combine","false","false","90","3","","","0","3","","","","","","","","","","",""
"","html-keyboard-response","436","1974989","0.0-2.0-14.0-2.0-1.0","null","<p style=""color: red"">X</p>","null","feedback","","","","","","","","","","","","","","","","","","",""
"","html-keyboard-response","437","1975298","0.0-2.0-14.0-2.0-2.0","null"," ","null","ITI","","","","","","","","","","","","","","","","","","",""
"","categorize-html","438","1976079","0.0-2.0-14.0-2.0-3.0","776.4099999330938","<p>T</p>","72","combine","true","true","72","3","","","0","3","","","","","","","","","","",""
"","html-keyboard-response","439","1976820","0.0-2.0-14.0-2.0-4.0","null","<p style=""color: red"">T</p>","null","feedback","","","","","","","","","","","","","","","","","","",""
"","html-keyboard-response","440","1977134","0.0-2.0-14.0-2.0-5.0","null"," ","null","ITI","","","","","","","","","","","","","","","","","","",""
"","categorize-html","441","1978657","0.0-2.0-14.0-2.0-6.0","null","<p>E</p>","null","combine","false","false","90","3","","","0","3","","","","","","","","","","",""
"","html-keyboard-response","442","1978663","0.0-2.0-14.0-2.0-7.0","null","<p style=""color: red"">E</p>","null","feedback","","","","","","","","","","","","","","","","","","",""
"","html-keyboard-response","443","1978980","0.0-2.0-14.0-2.0-8.0","null"," ","null","ITI","","","","","","","","","","","","","","","","","","",""
"","categorize-html","444","1979732","0.0-2.0-14.0-2.0-9.0","747.0149998553097","<p>X</p>","75","combine","true","false","75","3","","","1","3","","","","","","","","","","",""
"","html-keyboard-response","445","1980491","0.0-2.0-14.0-2.0-10.0","null","<p style=""color: red"">X</p>","null","feedback","","","","","","","","","","","","","","","","","","",""
"","html-keyboard-response","446","1980806","0.0-2.0-14.0-2.0-11.0","null"," ","null","ITI","","","","","","","","","","","","","","","","","","",""
"","categorize-html","447","1981600","0.0-2.0-14.0-2.0-12.0","789.1199998557568","<p>T</p>","72","combine","false","true","75","3","","","0","3","","","","","","","","","","",""
"","html-keyboard-response","448","1982320","0.0-2.0-14.0-2.0-13.0","null","<p style=""color: red"">T</p>","null","feedback","","","","","","","","","","","","","","","","","","",""
"","html-keyboard-response","449","1982652","0.0-2.0-14.0-2.0-14.0","null"," ","null","ITI","","","","","","","","","","","","","","","","","","",""
"","categorize-html","450","1983907","0.0-2.0-14.0-2.0-15.0","1249.9800000805408","<p>E</p>","75","combine","true","false","75","3","","","1","3","","","","","","","","","","",""
"","html-keyboard-response","451","1984166","0.0-2.0-14.0-2.0-16.0","null","<p style=""color: red"">E</p>","null","feedback","","","","","","","","","","","","","","","","","","",""
"","html-keyboard-response","452","1984471","0.0-2.0-14.0-2.0-17.0","null"," ","null","ITI","","","","","","","","","","","","","","","","","","",""
"","categorize-html","453","1985991","0.0-2.0-14.0-2.0-18.0","null","<p>X</p>","null","combine","false","false","75","3","","","1","3","","","","","","","","","","",""
"","html-keyboard-response","454","1985999","0.0-2.0-14.0-2.0-19.0","null","<p style=""color: red"">X</p>","null","feedback","","","","","","","","","","","","","","","","","","",""
"","html-keyboard-response","455","1986308","0.0-2.0-14.0-2.0-20.0","null"," ","null","ITI","","","","","","","","","","","","","","","","","","",""
"","categorize-html","456","1987836","0.0-2.0-14.0-2.0-21.0","null","<p>X</p>","null","combine","false","false","90","3","","","0","3","","","","","","","","","","",""
"","html-keyboard-response","457","1987843","0.0-2.0-14.0-2.0-22.0","null","<p style=""color: red"">X</p>","null","feedback","","","","","","","","","","","","","","","","","","",""
"","html-keyboard-response","458","1988152","0.0-2.0-14.0-2.0-23.0","null"," ","null","ITI","","","","","","","","","","","","","","","","","","",""
"","categorize-html","459","1988800","0.0-2.0-14.0-2.0-24.0","643.574999878183","<p>T</p>","72","combine","true","true","72","3","","","0","3","","","","","","","","","","",""
"","html-keyboard-response","460","1989673","0.0-2.0-14.0-2.0-25.0","null","<p style=""color: red"">T</p>","null","feedback","","","","","","","","","","","","","","","","","","",""
"","html-keyboard-response","461","1989980","0.0-2.0-14.0-2.0-26.0","null"," ","null","ITI","","","","","","","","","","","","","","","","","","",""
"","categorize-html","462","1991520","0.0-2.0-14.0-2.0-27.0","null","<p>R</p>","null","combine","false","false","90","3","","","0","3","","","","","","","","","","",""
"","html-keyboard-response","463","1991529","0.0-2.0-14.0-2.0-28.0","null","<p style=""color: red"">R</p>","null","feedback","","","","","","","","","","","","","","","","","","",""
"","html-keyboard-response","464","1991839","0.0-2.0-14.0-2.0-29.0","null"," ","null","ITI","","","","","","","","","","","","","","","","","","",""
"","categorize-html","465","1992580","0.0-2.0-14.0-2.0-30.0","736.500000115484","<p>X</p>","75","combine","true","false","75","3","","","1","3","","","","","","","","","","",""
"","html-keyboard-response","466","1993348","0.0-2.0-14.0-2.0-31.0","null","<p style=""color: red"">X</p>","null","feedback","","","","","","","","","","","","","","","","","","",""
"","html-keyboard-response","467","1993666","0.0-2.0-14.0-2.0-32.0","null"," ","null","ITI","","","","","","","","","","","","","","","","","","",""
"","categorize-html","468","1995180","0.0-2.0-14.0-2.0-33.0","null","<p>E</p>","null","combine","false","false","90","3","","","0","3","","","","","","","","","","",""
"","html-keyboard-response","469","1995187","0.0-2.0-14.0-2.0-34.0","null","<p style=""color: red"">E</p>","null","feedback","","","","","","","","","","","","","","","","","","",""
"","html-keyboard-response","470","1995500","0.0-2.0-14.0-2.0-35.0","null"," ","null","ITI","","","","","","","","","","","","","","","","","","",""
"","categorize-html","471","1996407","0.0-2.0-14.0-2.0-36.0","888.2750000339001","<p>T</p>","72","combine","true","true","72","3","","","0","3","","","","","","","","","","",""
"","html-keyboard-response","472","1997029","0.0-2.0-14.0-2.0-37.0","null","<p style=""color: red"">T</p>","null","feedback","","","","","","","","","","","","","","","","","","",""
"","html-keyboard-response","473","1997335","0.0-2.0-14.0-2.0-38.0","null"," ","null","ITI","","","","","","","","","","","","","","","","","","",""
