"success","trial_type","trial_index","time_elapsed","internal_node_id","rt","stimulus","key_press","task","correct","switch","rule","stimnum","prob_switch","correct_key","tasknum","practice","practice_accuracy","number_practice_combines","response","BDMquizgrade","task_displayed","slider_start","responses","question_order","TOT","overall","performance_by_block","points_list","value_list","offer_list","exp_version"
"true","fullscreen","0","1421921","0.0-0.0","","","","","","","","","","","","","","","","","","","","","","","","","","",""
"","html-keyboard-response","1","1466680","0.0-1.0-0.0-0.0","44753.14000004437","<p>In this experiment, you'll complete up to 12 short rounds of two tasks.</p><p>If you are 80% correct or better during one round of a task, then you pass that round and earn bonus points for it. If you are less than 80% correct, you will not earn any points for that round.</p><p>You can earn 1 to 5 points each round.</p><p>Keep in mind that you should be about 80% accurate for up to 12 rounds.</p><p>At the end of the experiment, the points you earned will be added up and turned into a bonus payment. $$ The more points you earn, the more money you will be paid. $$</p><p>We can tell if you're not paying attention; if you're not, then this experiment will end early and you will earn a smaller payment. $$</p><p>[Press space to continue.]</p>","32","instructions","","","","","","","","","","","","","","","","","","","","","","",""
"","html-keyboard-response","2","1533904","0.0-1.0-1.0-0.0-0.0","67221.86000004876","<p>In this task, you will need to follow different rules depending on the color of the numbers on screen.</p><p style=""color: red"">If the number is red, you will need to respond to its magnitude (less than or greater than 5?).</p><p style=""color: blue"">If the number is blue, you will need to respond to its parity (even or odd?).</p><p>Let's practice responding to these rules, one at a time.</p><p>[Press the space bar to continue.]</p>","32","instructions","","","","","","","","","","","","","","","","","","","","","","",""
"","html-keyboard-response","3","1546287","0.0-1.0-1.0-1.0-0.0-0.0","12380.275000003166","<p>Let's practice following the parity (even or odd?) rule.</p><p>On the next screen, please respond to the parity (even or odd?) of the numbers on screen.</p><p>Press <strong>H</strong> if the number is even.</p><p>Press <strong>K</strong> if the number is odd.</p><p>[Press the space bar to continue.]</p>","32","instructions","","","","","","","","","","","","","","","","","","","","","","",""
"","categorize-html","4","1547793","0.0-1.0-1.0-1.0-1.0-0.0","null","<p style=""color: blue"">9</p>","null","n-switch","false","false","2","7","0","75","-1","true","","","","","","","","","","","","","","",""
"","html-keyboard-response","5","1548548","0.0-1.0-1.0-1.0-1.0-1.0","null","Please respond in time!","null","feedback","","","","","","","","","","","","","","","","","","","","","","",""
"","categorize-html","6","1549281","0.0-1.0-1.0-1.0-1.0-2.0","728.8650000700727","<p style=""color: blue"">6</p>","72","n-switch","true","false","2","4","0","72","-1","true","","","","","","","","","","","","","","",""
"","html-keyboard-response","7","1550035","0.0-1.0-1.0-1.0-1.0-3.0","null","Correct!","null","feedback","","","","","","","","","","","","","","","","","","","","","","",""
"","categorize-html","8","1550472","0.0-1.0-1.0-1.0-1.0-4.0","433.0550000304356","<p style=""color: blue"">6</p>","72","n-switch","true","false","2","4","0","72","-1","true","","","","","","","","","","","","","","",""
"","html-keyboard-response","9","1551228","0.0-1.0-1.0-1.0-1.0-5.0","null","Correct!","null","feedback","","","","","","","","","","","","","","","","","","","","","","",""
"","categorize-html","10","1551699","0.0-1.0-1.0-1.0-1.0-6.0","466.85500000603497","<p style=""color: blue"">9</p>","75","n-switch","true","false","2","7","0","75","-1","true","","","","","","","","","","","","","","",""
"","html-keyboard-response","11","1552457","0.0-1.0-1.0-1.0-1.0-7.0","null","Correct!","null","feedback","","","","","","","","","","","","","","","","","","","","","","",""
"","categorize-html","12","1553100","0.0-1.0-1.0-1.0-1.0-8.0","638.745000003837","<p style=""color: blue"">3</p>","75","n-switch","true","false","2","2","0","75","-1","true","","","","","","","","","","","","","","",""
"","html-keyboard-response","13","1553854","0.0-1.0-1.0-1.0-1.0-9.0","null","Correct!","null","feedback","","","","","","","","","","","","","","","","","","","","","","",""
"","categorize-html","14","1554375","0.0-1.0-1.0-1.0-1.0-10.0","516.5199999464676","<p style=""color: blue"">8</p>","72","n-switch","true","false","2","6","0","72","-1","true","","","","","","","","","","","","","","",""
"","html-keyboard-response","15","1555127","0.0-1.0-1.0-1.0-1.0-11.0","null","Correct!","null","feedback","","","","","","","","","","","","","","","","","","","","","","",""
"","categorize-html","16","1555737","0.0-1.0-1.0-1.0-1.0-12.0","605.9899999527261","<p style=""color: blue"">8</p>","72","n-switch","true","false","2","6","0","72","-1","true","","","","","","","","","","","","","","",""
"","html-keyboard-response","17","1556496","0.0-1.0-1.0-1.0-1.0-13.0","null","Correct!","null","feedback","","","","","","","","","","","","","","","","","","","","","","",""
"","categorize-html","18","1557335","0.0-1.0-1.0-1.0-1.0-14.0","829.4150000438094","<p style=""color: blue"">2</p>","72","n-switch","true","false","2","1","0","72","-1","true","","","","","","","","","","","","","","",""
"","html-keyboard-response","19","1558088","0.0-1.0-1.0-1.0-1.0-15.0","null","Correct!","null","feedback","","","","","","","","","","","","","","","","","","","","","","",""
"","html-keyboard-response","20","1560706","0.0-1.0-1.0-1.0-2.0","2613.5899999644607","<p>You were <strong>87.5% accurate</strong>.</p><p>You will need to be at least 80% accurate to earn points in the real experiment.</p><p>In the real experiment, you will not receive the same feedback as during practice.</p><p>Press the space bar to continue. </p>","32","debrief","","","","","","","","true","87.5","","","","","","","","","","","","","",""
"","html-keyboard-response","21","1570078","0.0-1.0-1.0-2.0-0.0-0.0","9370.149999973364","<p>Let's practice following the magnitude (less than or greater than 5?) rule.</p><p>On the next screen, please respond to the magnitude (less than or greater than 5?) of the numbers on screen.</p><p>Press <strong>S</strong> if the number is <5.</p><p>Press <strong>F</strong> if the number is >5.</p><p>[Press the space bar to continue.]</p>","32","instructions","","","","","","","","","","","","","","","","","","","","","","",""
"","categorize-html","22","1570947","0.0-1.0-1.0-2.0-1.0-0.0","865.1649999665096","<p style=""color: red"">1</p>","83","n-switch","true","false","1","0","0","83","-1","true","","","","","","","","","","","","","","",""
"","html-keyboard-response","23","1571701","0.0-1.0-1.0-2.0-1.0-1.0","null","Correct!","null","feedback","","","","","","","","","","","","","","","","","","","","","","",""
"","categorize-html","24","1572133","0.0-1.0-1.0-2.0-1.0-2.0","428.38499997742474","<p style=""color: red"">9</p>","70","n-switch","true","false","1","7","0","70","-1","true","","","","","","","","","","","","","","",""
"","html-keyboard-response","25","1572886","0.0-1.0-1.0-2.0-1.0-3.0","null","Correct!","null","feedback","","","","","","","","","","","","","","","","","","","","","","",""
"","categorize-html","26","1573340","0.0-1.0-1.0-2.0-1.0-4.0","450.209999922663","<p style=""color: red"">9</p>","70","n-switch","true","false","1","7","0","70","-1","true","","","","","","","","","","","","","","",""
"","html-keyboard-response","27","1574093","0.0-1.0-1.0-2.0-1.0-5.0","null","Correct!","null","feedback","","","","","","","","","","","","","","","","","","","","","","",""
"","categorize-html","28","1574444","0.0-1.0-1.0-2.0-1.0-6.0","346.81000001728535","<p style=""color: red"">9</p>","70","n-switch","true","false","1","7","0","70","-1","true","","","","","","","","","","","","","","",""
"","html-keyboard-response","29","1575198","0.0-1.0-1.0-2.0-1.0-7.0","null","Correct!","null","feedback","","","","","","","","","","","","","","","","","","","","","","",""
"","categorize-html","30","1575705","0.0-1.0-1.0-2.0-1.0-8.0","503.1099999323487","<p style=""color: red"">4</p>","83","n-switch","true","false","1","3","0","83","-1","true","","","","","","","","","","","","","","",""
"","html-keyboard-response","31","1576459","0.0-1.0-1.0-2.0-1.0-9.0","null","Correct!","null","feedback","","","","","","","","","","","","","","","","","","","","","","",""
"","categorize-html","32","1576919","0.0-1.0-1.0-2.0-1.0-10.0","455.4950000019744","<p style=""color: red"">3</p>","83","n-switch","true","false","1","2","0","83","-1","true","","","","","","","","","","","","","","",""
"","html-keyboard-response","33","1577671","0.0-1.0-1.0-2.0-1.0-11.0","null","Correct!","null","feedback","","","","","","","","","","","","","","","","","","","","","","",""
"","categorize-html","34","1578706","0.0-1.0-1.0-2.0-1.0-12.0","1031.6250000614673","<p style=""color: red"">7</p>","70","n-switch","true","false","1","5","0","70","-1","true","","","","","","","","","","","","","","",""
"","html-keyboard-response","35","1579478","0.0-1.0-1.0-2.0-1.0-13.0","null","Correct!","null","feedback","","","","","","","","","","","","","","","","","","","","","","",""
"","categorize-html","36","1579961","0.0-1.0-1.0-2.0-1.0-14.0","475.97000002861023","<p style=""color: red"">8</p>","70","n-switch","true","false","1","6","0","70","-1","true","","","","","","","","","","","","","","",""
"","html-keyboard-response","37","1580718","0.0-1.0-1.0-2.0-1.0-15.0","null","Correct!","null","feedback","","","","","","","","","","","","","","","","","","","","","","",""
"","html-keyboard-response","38","1582593","0.0-1.0-1.0-2.0-2.0","1872.495000017807","<p>You were <strong>100% accurate</strong>.</p><p>You will need to be at least 80% accurate to earn points in the real experiment.</p><p>In the real experiment, you will not receive the same feedback as during practice.</p><p>Press the space bar to continue. </p>","32","debrief","","","","","","","","true","100","","","","","","","","","","","","","",""
"","html-keyboard-response","39","1588587","0.0-1.0-1.0-3.0-0.0-0.0","5992.934999987483","<img src=""./static/img/fractal2.png"" width=""250"" height=""250""","32","","","","","","","","","","","","","","","","","","","","","","","",""
"","html-keyboard-response","40","1610046","0.0-1.0-1.0-3.0-1.0-0.0","21456.105000106618","<p>Now, let's practice responding to both rules.</p><p>You will be responding to both rules, one at a time, depending on the color of the number on screen.</p><p>You will use four different keys, <strong>S, F, H, and K</strong> to respond.</p><p style=""color: red"">If the number is red, you will need to respond to its magnitude (less than or greater than 5?).</p><p style=""color: blue"">If the number is blue, you will need to respond to its parity (even or odd?).</p><p>Press the space bar to practice this task.</p>","32","instructions","","","","","","","","","","","","","","","","","","","","","","",""
"","categorize-html","41","1611554","0.0-1.0-1.0-3.0-2.0-0.0","null","<p style=""color: red"">7</p>","null","n-switch","false","false","1","5","0.9","70","-1","true","","","","","","","","","","","","","","",""
"","html-keyboard-response","42","1612308","0.0-1.0-1.0-3.0-2.0-1.0","160.69499996956438","Please respond in time!","70","feedback","","","","","","","","","","","","","","","","","","","","","","",""
"","categorize-html","43","1613822","0.0-1.0-1.0-3.0-2.0-2.0","null","<p style=""color: blue"">9</p>","null","n-switch","false","true","2","7","0.9","75","-1","true","","","","","","","","","","","","","","",""
"","html-keyboard-response","44","1614577","0.0-1.0-1.0-3.0-2.0-3.0","12.920000008307397","Please respond in time!","75","feedback","","","","","","","","","","","","","","","","","","","","","","",""
"","categorize-html","45","1616092","0.0-1.0-1.0-3.0-2.0-4.0","null","<p style=""color: blue"">8</p>","null","n-switch","false","false","2","6","0.9","72","-1","true","","","","","","","","","","","","","","",""
"","html-keyboard-response","46","1616845","0.0-1.0-1.0-3.0-2.0-5.0","null","Please respond in time!","null","feedback","","","","","","","","","","","","","","","","","","","","","","",""
"","categorize-html","47","1618200","0.0-1.0-1.0-3.0-2.0-6.0","1351.3750000856817","<p style=""color: red"">9</p>","70","n-switch","true","true","1","7","0.9","70","-1","true","","","","","","","","","","","","","","",""
"","html-keyboard-response","48","1618953","0.0-1.0-1.0-3.0-2.0-7.0","null","Correct!","null","feedback","","","","","","","","","","","","","","","","","","","","","","",""
"","categorize-html","49","1620461","0.0-1.0-1.0-3.0-2.0-8.0","null","<p style=""color: red"">8</p>","null","n-switch","false","false","1","6","0.9","70","-1","true","","","","","","","","","","","","","","",""
"","html-keyboard-response","50","1621214","0.0-1.0-1.0-3.0-2.0-9.0","155.88500001467764","Please respond in time!","70","feedback","","","","","","","","","","","","","","","","","","","","","","",""
"","categorize-html","51","1621823","0.0-1.0-1.0-3.0-2.0-10.0","605.4650000296533","<p style=""color: red"">7</p>","70","n-switch","true","false","1","5","0.9","70","-1","true","","","","","","","","","","","","","","",""
"","html-keyboard-response","52","1622576","0.0-1.0-1.0-3.0-2.0-11.0","null","Correct!","null","feedback","","","","","","","","","","","","","","","","","","","","","","",""
"","categorize-html","53","1623591","0.0-1.0-1.0-3.0-2.0-12.0","1010.8849999960512","<p style=""color: blue"">9</p>","75","n-switch","true","true","2","7","0.9","75","-1","true","","","","","","","","","","","","","","",""
"","html-keyboard-response","54","1624343","0.0-1.0-1.0-3.0-2.0-13.0","null","Correct!","null","feedback","","","","","","","","","","","","","","","","","","","","","","",""
"","categorize-html","55","1625084","0.0-1.0-1.0-3.0-2.0-14.0","737.8449999960139","<p style=""color: red"">7</p>","70","n-switch","true","true","1","5","0.9","70","-1","true","","","","","","","","","","","","","","",""
"","html-keyboard-response","56","1625840","0.0-1.0-1.0-3.0-2.0-15.0","null","Correct!","null","feedback","","","","","","","","","","","","","","","","","","","","","","",""
"","categorize-html","57","1626657","0.0-1.0-1.0-3.0-2.0-16.0","812.7399999648333","<p style=""color: red"">1</p>","83","n-switch","true","false","1","0","0.9","83","-1","true","","","","","","","","","","","","","","",""
"","html-keyboard-response","58","1627411","0.0-1.0-1.0-3.0-2.0-17.0","null","Correct!","null","feedback","","","","","","","","","","","","","","","","","","","","","","",""
"","categorize-html","59","1628260","0.0-1.0-1.0-3.0-2.0-18.0","845.0150000862777","<p style=""color: red"">2</p>","83","n-switch","true","false","1","1","0.9","83","-1","true","","","","","","","","","","","","","","",""
"","html-keyboard-response","60","1629016","0.0-1.0-1.0-3.0-2.0-19.0","null","Correct!","null","feedback","","","","","","","","","","","","","","","","","","","","","","",""
"","html-keyboard-response","61","1631370","0.0-1.0-1.0-3.0-3.0","2350.8099999744445","<p>Your accuracy was <strong>60%</strong>.</p><p>You will need to be at least 80% accurate to earn points in the real experiment.</p><p>In the real experiment, you will not receive the same feedback as during practice.</p><p>Press the space bar to continue. </p>","32","debrief","","","","","","","","true","60","","","","","","","","","","","","","",""
"","html-keyboard-response","62","1634156","0.0-1.0-1.0-4.0-0.0","2783.299999893643","<p> You were 60% accurate.</p><p>You are not at 80% accuracy yet.</p><p>Let's try this task again.</p><p>[Press the space bar to continue.]</p>","32","","","","","","","","","","60","","","","","","","","","","","","","",""
"","html-keyboard-response","63","1639028","0.0-1.0-1.0-5.0-0.0","4870.534999994561","<p>You will get 3 more tries to get to 80% accuracy on this task.</p><p>Don't worry, most subjects need a few rounds of practice on this task.</p><p>If the feedback is more distracting than helpful, try your best to just ignore it.</p><p>[Press space bar to try again.]</p>","32","","","","","","","","","","","1","","","","","","","","","","","","",""
"","html-keyboard-response","64","1639755","0.0-1.0-1.0-6.0-0.0-0.0","724.3650000309572","<img src=""./static/img/fractal2.png"" width=""250"" height=""250""","32","","","","","","","","","","","","","","","","","","","","","","","",""
"","html-keyboard-response","65","1640454","0.0-1.0-1.0-6.0-1.0-0.0","697.3050000378862","<p>Now, let's practice responding to both rules.</p><p>You will be responding to both rules, one at a time, depending on the color of the number on screen.</p><p>You will use four different keys, <strong>S, F, H, and K</strong> to respond.</p><p style=""color: red"">If the number is red, you will need to respond to its magnitude (less than or greater than 5?).</p><p style=""color: blue"">If the number is blue, you will need to respond to its parity (even or odd?).</p><p>Press the space bar to practice this task.</p>","32","instructions","","","","","","","","","","","","","","","","","","","","","","",""
"","categorize-html","66","1641400","0.0-1.0-1.0-6.0-2.0-0.0","942.2049999702722","<p style=""color: red"">6</p>","70","n-switch","true","false","1","4","0.9","70","-1","true","","","","","","","","","","","","","","",""
"","html-keyboard-response","67","1642152","0.0-1.0-1.0-6.0-2.0-1.0","null","Correct!","null","feedback","","","","","","","","","","","","","","","","","","","","","","",""
"","categorize-html","68","1642769","0.0-1.0-1.0-6.0-2.0-2.0","612.9149999469519","<p style=""color: red"">2</p>","83","n-switch","true","false","1","1","0.9","83","-1","true","","","","","","","","","","","","","","",""
"","html-keyboard-response","69","1643529","0.0-1.0-1.0-6.0-2.0-3.0","null","Correct!","null","feedback","","","","","","","","","","","","","","","","","","","","","","",""
"","categorize-html","70","1644079","0.0-1.0-1.0-6.0-2.0-4.0","546.7700000153854","<p style=""color: red"">8</p>","70","n-switch","true","false","1","6","0.9","70","-1","true","","","","","","","","","","","","","","",""
"","html-keyboard-response","71","1644833","0.0-1.0-1.0-6.0-2.0-5.0","null","Correct!","null","feedback","","","","","","","","","","","","","","","","","","","","","","",""
"","categorize-html","72","1645369","0.0-1.0-1.0-6.0-2.0-6.0","531.7149999318644","<p style=""color: red"">8</p>","70","n-switch","true","false","1","6","0.9","70","-1","true","","","","","","","","","","","","","","",""
"","html-keyboard-response","73","1646122","0.0-1.0-1.0-6.0-2.0-7.0","null","Correct!","null","feedback","","","","","","","","","","","","","","","","","","","","","","",""
"","categorize-html","74","1646678","0.0-1.0-1.0-6.0-2.0-8.0","552.5249999482185","<p style=""color: red"">1</p>","83","n-switch","true","false","1","0","0.9","83","-1","true","","","","","","","","","","","","","","",""
"","html-keyboard-response","75","1647431","0.0-1.0-1.0-6.0-2.0-9.0","null","Correct!","null","feedback","","","","","","","","","","","","","","","","","","","","","","",""
"","categorize-html","76","1648235","0.0-1.0-1.0-6.0-2.0-10.0","800.1899999799207","<p style=""color: blue"">4</p>","72","n-switch","true","true","2","3","0.9","72","-1","true","","","","","","","","","","","","","","",""
"","html-keyboard-response","77","1648990","0.0-1.0-1.0-6.0-2.0-11.0","null","Correct!","null","feedback","","","","","","","","","","","","","","","","","","","","","","",""
"","categorize-html","78","1650147","0.0-1.0-1.0-6.0-2.0-12.0","1151.784999994561","<p style=""color: red"">4</p>","83","n-switch","true","true","1","3","0.9","83","-1","true","","","","","","","","","","","","","","",""
"","html-keyboard-response","79","1650904","0.0-1.0-1.0-6.0-2.0-13.0","null","Correct!","null","feedback","","","","","","","","","","","","","","","","","","","","","","",""
"","categorize-html","80","1651703","0.0-1.0-1.0-6.0-2.0-14.0","794.8450000258163","<p style=""color: red"">2</p>","83","n-switch","true","false","1","1","0.9","83","-1","true","","","","","","","","","","","","","","",""
"","html-keyboard-response","81","1652455","0.0-1.0-1.0-6.0-2.0-15.0","null","Correct!","null","feedback","","","","","","","","","","","","","","","","","","","","","","",""
"","categorize-html","82","1653123","0.0-1.0-1.0-6.0-2.0-16.0","664.0299999853596","<p style=""color: blue"">8</p>","75","n-switch","false","true","2","6","0.9","72","-1","true","","","","","","","","","","","","","","",""
"","html-keyboard-response","83","1653878","0.0-1.0-1.0-6.0-2.0-17.0","null","Incorrect!","null","feedback","","","","","","","","","","","","","","","","","","","","","","",""
"","categorize-html","84","1655389","0.0-1.0-1.0-6.0-2.0-18.0","null","<p style=""color: blue"">2</p>","null","n-switch","false","false","2","1","0.9","72","-1","true","","","","","","","","","","","","","","",""
"","html-keyboard-response","85","1656142","0.0-1.0-1.0-6.0-2.0-19.0","191.97500008158386","Please respond in time!","72","feedback","","","","","","","","","","","","","","","","","","","","","","",""
"","html-keyboard-response","86","1658861","0.0-1.0-1.0-6.0-3.0","2713.6100000934675","<p>Your accuracy was <strong>80%</strong>.</p><p>You will need to be at least 80% accurate to earn points in the real experiment.</p><p>In the real experiment, you will not receive the same feedback as during practice.</p><p>Press the space bar to continue. </p>","32","debrief","","","","","","","","true","80","","","","","","","","","","","","","",""
"","html-keyboard-response","87","1662630","0.0-1.0-1.0-13.0-0.0","3765.929999994114","<p>Good job! You have reached 80% accuracy on this practice task. We will now explain how the payment process for this experiment will work.</p><p>[Press the space bar to continue.]</p>","32","debrief","","","","","","","","","","","","","","","","","","","","","","",""
"","html-keyboard-response","88","1678126","0.0-1.0-2.0-0.0-0.0","15493.41499991715","<p>Please read these instructions carefully, as you will be tested on your understanding of them.</p><p>Before each round begins, you will be asked how many points is a fair wage to be at least 80% accurate at one of the tasks you just practiced.</p><p>We want you to tell us truthfully how many points is a fair wage, and so we are using a payment process where <strong>telling the truth is the best strategy.</strong></p><p>This means that <strong>you have some control over what you will be paid</strong> at the end of the experiment.</p><p>Whenever given a choice, <strong> the best thing you can do is to always ask for what you consider to be a fair wage for at least 80% accuracy on the task.</strong></p><p>[Press the space bar to continue.]</p>","32","","","","","","","","","","","","","","","","","","","","","","","",""
"","html-keyboard-response","89","1699616","0.0-1.0-2.0-1.0-0.0","21488.454999984242","<p>What do we mean by ""fair wage""?</p><p>When you get hired to complete some work, you may ask for more or less payment based on how much you would enjoy doing that work.</p><p>For example, you might dislike mowing the lawn more than watering the garden, and may ask for more in return for mowing the lawn.</p><p>A fair wage for you is the amount of points you think it would be fair for you to receive in exchange for your completion of the task.</p><p>While you won't get paid exactly what you ask for, the best strategy is to ask for what you truly believe is a fair wage for you.</p><p>We're not going to get into the exact reasons why until the end of the experiment.</p><p>[Press the space bar to continue.]</p>","83","","","","","","","","","","","","","","","","","","","","","","","",""
"","html-keyboard-response","90","1709106","0.0-1.0-2.0-2.0-0.0","9488.29000000842","<p>In short, once you report your fair wage, the computer will present you with a <strong> random offer.</strong></p><p>If you ask for fewer points than the computer offers you, then you will complete the task and be given the points the computer offered.</p><p>Say you ask for 3 points and the computer offers 4, then if you pass the task with at least 80% accuracy, you will be given 4 points.</p><p>If you ask for more points than the computer offers you, then you will do a different task on that round. The alternate task is worth <strong>1 point.</strong></p><p>For example, if you ask for 5 points and the computer offers 4 points, then you will do something else and be given 1 point.</p><p>There is no way to game the payment system. You will either get the computer's random point offer, or 1 point for an alternative task.</p><p>[Press the space bar to continue.]</p>","75","","","","","","","","","","","","","","","","","","","","","","","",""
"","html-slider-response","91","1724002","0.0-1.0-2.0-3.0-0.0-0.0","14892.875000019558","<img src=""./static/img/fractal3.jpg"" width=""250"" height=""250""","","instructs","","","","","","","","","","","52","","","","","","","","","","","",""
"","html-keyboard-response","92","1754005","0.0-1.0-2.0-3.0-1.0-0.0","null","<p>You asked for 3.08 points.</p><p>The computer offered 4.88 points.</p><p>Because the computer's offer is larger, you would move onto the pictured task and, if you achieved 80% accuracy on this task, you would be given 4.88 points at the end.</p><p>Press the space bar to continue.</p>","null","","","","","","","","","","","","","","","","","","","","","","","",""
"","html-slider-response","93","1761105","0.0-1.0-2.0-3.0-2.0-0.0","7095.684999949299","<img src=""./static/img/fractal3.jpg"" width=""250"" height=""250""","","instructs","","","","","","","","","","","100","","","","","","","","","","","",""
"","html-keyboard-response","94","1788710","0.0-1.0-2.0-3.0-3.0-0.0","27603.345000068657","<p>You asked for 5.00 points.</p><p>The computer offered 1.24 points.</p><p>Because the computer's offer is smaller, you would skip the pictured task and, if you achieved 80% accuracy on an alternate task, you would be given 1 point at the end.</p><p>Press the space bar to continue.</p>","32","","","","","","","","","","","","","","","","","","","","","","","",""
"","html-keyboard-response","95","1799438","0.0-1.0-2.0-4.0-0.0","10726.3100000564","<p><strong> Your best strategy is to always ask for what you believe is a fair wage for hitting at least 80% accuracy on 1 round of a task.</strong></p><p>We will now quiz you on the instructions you've just read. If you fail this quiz, you cannot participate in this experiment.</p><p>Press R if you'd like to read these instructions again.</p><p>Press the space bar if you'd like to move on to the quiz.</p>","32","","","","","","","","","","","","","","","","","","","","","","","",""
"","categorize-html","96","1810727","0.0-1.0-2.0-6.0-0.0","9285.215000039898","<p'font-size':15px>[Question 1 of 6]</p><p'font-size':25px>[Press A or B to indicate your answer.]</p><p'font-size':25px>Imagine you think a true fair wage is 2 points. Which amount should you ask for?</p><p 'font-size':25px> A. 4</p><p 'font-size':25px> B. 2</p>","66","quiz","true","","","","","","","","","","","","","","","","","","","","","",""
"","categorize-html","97","1827671","0.0-1.0-2.0-6.0-0.1","14939.905000035651","<p'font-size':15px>[Question 2 of 6]</p><p'font-size':25px>[Press A or B to indicate your answer.]</p><p><img src='./static/img/offer_big.png'></p><p'font-size':25px>What happens when you ask for <strong>more</strong> points than the computer offers?</p><p>A. You will start the pictured task, and get the points the computer offered if you pass that round.</p><p 'font-size':25px> B. You will start a different task and be given 1 point if you pass that round.</p>","66","quiz","true","","","","","","","","","","","","","","","","","","","","","",""
"","categorize-html","98","1861858","0.0-1.0-2.0-6.0-0.2","32182.01999994926","<p'font-size':15px>[Question 3 of 6]</p><p'font-size':25px>[Press A or B to indicate your answer.]</p><p'font-size':25px>Under which of the following two conditions will you do the pictured task?</p><p>A. When you ask for 2 points, and the computer randomly offers 3 points.</p><p 'font-size':25px> B. When you ask for 2 points, and the computer randomly offers 1 point.</p>","65","quiz","true","","","","","","","","","","","","","","","","","","","","","",""
"","categorize-html","99","1873394","0.0-1.0-2.0-6.0-0.3","9529.005000018515","<p'font-size':15px>[Question 4 of 6]</p><p'font-size':25px>[Press A or B to indicate your answer.]</p><p><img src='./static/img/offer_small.png'></p><p'font-size':25px>What happens when you ask for <strong>fewer</strong> points than the computer offers?</p><p>A. You will start the task, and get the points the computer offered if you pass that round.</p><p 'font-size':25px> B. You will start a different task and be given 1 point if you pass that round.</p>","65","quiz","true","","","","","","","","","","","","","","","","","","","","","",""
"","categorize-html","100","1886344","0.0-1.0-2.0-6.0-0.4","10946.234999923036","<p'font-size':15px>[Question 5 of 6]</p><p'font-size':25px>[Press A or B to indicate your answer.]</p><p'font-size':25px>Under which of the following two conditions will you <strong>not</strong> do the pictured task?</p><p>A. When you ask for 3 points, and the computer randomly offers 2 points.</p><p 'font-size':25px> B. When you ask for 3 points, and the computer randomly offers 4 points.</p>","65","quiz","true","","","","","","","","","","","","","","","","","","","","","",""
"","categorize-html","101","1894288","0.0-1.0-2.0-6.0-0.5","5939.355000038631","<p'font-size':15px>[Question 6 of 6]</p><p'font-size':25px>[Press A or B to indicate your answer.]</p><p'font-size':25px>Which is the correct strategy for asking for points?</p><p>A. Ask for as many points as possible.</p><p 'font-size':25px> B. Tell the truth about what is a fair wage for you.</p>","66","quiz","true","","","","","","","","","","","","","","","","","","","","","",""
"","html-keyboard-response","102","1897826","0.0-1.0-2.0-7.0-0.0","3535.980000044219","<p>Great job! We will now begin the real experiment.</p><p>[Press the space bar to continue.]</p>","32","BDMquiz","","","","","","","","","","","","100","","","","","","","","","","",""
"","html-keyboard-response","103","1908335","0.0-1.0-3.0-0.0","10507.174999918789","<p>The real experiment will now start. </p><p>For each round of the experiment, you will be asked how many points you would like to earn to complete a task.</p><p>If you ask for more points than a randomly generated number, you will not complete that task. </p><p>Instead, you will complete a different task and earn 1 point.</p><p>At the end of the experiment, the points you earn will be counted and turned into a bonus payment. $$</p><p>[Press the space bar to continue.]</p>","32","instructions","","","","","","","","","","","","","","","","","","","","","","",""
"","html-keyboard-response","104","1922463","0.0-1.0-4.0-0.0","14125.705000013113","<p>Pay attention! If you are not at least 80% accurate, you will not earn points for completing each task.</p><p>You will not be getting the same amount of feedback on your performance in the real experiment.</p><p>If you press a button, the stimulus on screen will change color to show you that the computer registered your response.</p><p>At the end of the experiment, we'll ask you to complete some optional survey questions.</p><p>If we can tell that you are not paying attention (not accurate enough or not responding quickly enough), then this experiment will end early and you will earn a smaller payment. $$</p><p>[Press the space bar to begin the real experiment.]</p>","32","instructions","","","","","","","","","","","","","","","","","","","","","","",""
"","html-slider-response","105","1935213","0.0-2.0-0.0-0.0","12746.329999994487","<img src=""./static/img/fractal2.png"" width=""250"" height=""250""","","BDM","","","","","","","0","","","","64","","3","70.7018679250875","","","","","","","","",""
"","html-keyboard-response","106","1941504","0.0-2.0-1.0-0.0","6289.430000004359","<p style='font-size':25px> You want <strong> 3.56 </strong> points. </p> <p> The computer offers <strong>1.12</strong> points. </p><p> You will do the following task instead to earn 1 point. </p> <img src=""./static/img/fractal3.jpg"" width=""250"" height=""250"" location='center'></img><p>[Press the space bar to continue.]</p>","32","","","","","","","","","","","","","","","","","","","","","","","",""
"","html-keyboard-response","107","1941606","0.0-2.0-3.0-0.0","null","+","null","","","","","","","","","","","","","","","","","","","","","","","",""
"","html-keyboard-response","108","1947579","0.0-2.0-3.0-1.0-0.0","5970.0550000416115","<p>In this task, you will need to follow different rules depending on the color of the numbers on screen.</p><p style=""color: red"">If the number is red, you will need to respond to its magnitude (less than or greater than 5?).</p><p style=""color: blue"">If the number is blue, you will need to respond to its parity (even or odd?).</p><p> As a reminder, the response keys are: </p><p><strong> S   F   H   K </strong></p><p>[Press the space bar to continue.]</p>","32","instructions","","","","","","","","","","","","","","","","","","","","","","",""
"","categorize-html","109","1949083","0.0-2.0-3.0-2.0-0.0","null","<p style=""color: blue"" >9</p>","null","n-switch","false","false","2","7","0.1","75","0","false","","","","","","","","","","","","","","",""
"","html-keyboard-response","110","1949088","0.0-2.0-3.0-2.0-1.0","null","<p style=""color: black"">9</p>","null","feedback","","","","","","","","","","","","","","","","","","","","","","",""
"","html-keyboard-response","111","1949395","0.0-2.0-3.0-2.0-2.0","103.98000001441687"," ","75","ITI","","","","","","","","","","","","","","","","","","","","","","",""
"","categorize-html","112","1950910","0.0-2.0-3.0-2.0-3.0","null","<p style=""color: blue"" >8</p>","null","n-switch","false","false","2","6","0.1","72","0","false","","","","","","","","","","","","","","",""
"","html-keyboard-response","113","1950916","0.0-2.0-3.0-2.0-4.0","null","<p style=""color: black"">8</p>","null","feedback","","","","","","","","","","","","","","","","","","","","","","",""
"","html-keyboard-response","114","1951221","0.0-2.0-3.0-2.0-5.0","146.18500007782131"," ","70","ITI","","","","","","","","","","","","","","","","","","","","","","",""
"","categorize-html","115","1952260","0.0-2.0-3.0-2.0-6.0","1035.7050000457093","<p style=""color: blue"" >4</p>","72","n-switch","true","false","2","3","0.1","72","0","false","","","","","","","","","","","","","","",""
"","html-keyboard-response","116","1952727","0.0-2.0-3.0-2.0-7.0","null","<p style=""color: black"">4</p>","null","feedback","","","","","","","","","","","","","","","","","","","","","","",""
"","html-keyboard-response","117","1953029","0.0-2.0-3.0-2.0-8.0","null"," ","null","ITI","","","","","","","","","","","","","","","","","","","","","","",""
"","categorize-html","118","1954257","0.0-2.0-3.0-2.0-9.0","1223.8849999848753","<p style=""color: red"" >6</p>","70","n-switch","true","true","1","4","0.1","70","0","false","","","","","","","","","","","","","","",""
"","html-keyboard-response","119","1954538","0.0-2.0-3.0-2.0-10.0","null","<p style=""color: black"">6</p>","null","feedback","","","","","","","","","","","","","","","","","","","","","","",""
"","html-keyboard-response","120","1954843","0.0-2.0-3.0-2.0-11.0","null"," ","null","ITI","","","","","","","","","","","","","","","","","","","","","","",""
"","categorize-html","121","1955429","0.0-2.0-3.0-2.0-12.0","582.9849999863654","<p style=""color: red"" >2</p>","83","n-switch","true","false","1","1","0.1","83","0","false","","","","","","","","","","","","","","",""
"","html-keyboard-response","122","1956353","0.0-2.0-3.0-2.0-13.0","null","<p style=""color: black"">2</p>","null","feedback","","","","","","","","","","","","","","","","","","","","","","",""
"","html-keyboard-response","123","1956657","0.0-2.0-3.0-2.0-14.0","null"," ","null","ITI","","","","","","","","","","","","","","","","","","","","","","",""
"","categorize-html","124","1957464","0.0-2.0-3.0-2.0-15.0","801.4799999073148","<p style=""color: red"" >4</p>","70","n-switch","false","false","1","3","0.1","83","0","false","","","","","","","","","","","","","","",""
"","html-keyboard-response","125","1958166","0.0-2.0-3.0-2.0-16.0","null","<p style=""color: black"">4</p>","null","feedback","","","","","","","","","","","","","","","","","","","","","","",""
"","html-keyboard-response","126","1958480","0.0-2.0-3.0-2.0-17.0","null"," ","null","ITI","","","","","","","","","","","","","","","","","","","","","","",""
"","categorize-html","127","1959462","0.0-2.0-3.0-2.0-18.0","975.0449999701232","<p style=""color: red"" >3</p>","83","n-switch","true","false","1","2","0.1","83","0","false","","","","","","","","","","","","","","",""
"","html-keyboard-response","128","1959992","0.0-2.0-3.0-2.0-19.0","null","<p style=""color: black"">3</p>","null","feedback","","","","","","","","","","","","","","","","","","","","","","",""
"","html-keyboard-response","129","1960298","0.0-2.0-3.0-2.0-20.0","null"," ","null","ITI","","","","","","","","","","","","","","","","","","","","","","",""
"","categorize-html","130","1960891","0.0-2.0-3.0-2.0-21.0","589.8699999088421","<p style=""color: red"" >4</p>","70","n-switch","false","false","1","3","0.1","83","0","false","","","","","","","","","","","","","","",""
"","html-keyboard-response","131","1961803","0.0-2.0-3.0-2.0-22.0","null","<p style=""color: black"">4</p>","null","feedback","","","","","","","","","","","","","","","","","","","","","","",""
"","html-keyboard-response","132","1962105","0.0-2.0-3.0-2.0-23.0","null"," ","null","ITI","","","","","","","","","","","","","","","","","","","","","","",""
"","categorize-html","133","1962804","0.0-2.0-3.0-2.0-24.0","695.6050000153482","<p style=""color: red"" >8</p>","70","n-switch","true","false","1","6","0.1","70","0","false","","","","","","","","","","","","","","",""
"","html-keyboard-response","134","1963613","0.0-2.0-3.0-2.0-25.0","null","<p style=""color: black"">8</p>","null","feedback","","","","","","","","","","","","","","","","","","","","","","",""
"","html-keyboard-response","135","1963915","0.0-2.0-3.0-2.0-26.0","null"," ","null","ITI","","","","","","","","","","","","","","","","","","","","","","",""
"","categorize-html","136","1964712","0.0-2.0-3.0-2.0-27.0","794.2449999973178","<p style=""color: red"" >7</p>","70","n-switch","true","false","1","5","0.1","70","0","false","","","","","","","","","","","","","","",""
"","html-keyboard-response","137","1965420","0.0-2.0-3.0-2.0-28.0","null","<p style=""color: black"">7</p>","null","feedback","","","","","","","","","","","","","","","","","","","","","","",""
"","html-keyboard-response","138","1965726","0.0-2.0-3.0-2.0-29.0","null"," ","null","ITI","","","","","","","","","","","","","","","","","","","","","","",""
"","categorize-html","139","1966997","0.0-2.0-3.0-2.0-30.0","1267.3300000606105","<p style=""color: blue"" >7</p>","75","n-switch","true","true","2","5","0.1","75","0","false","","","","","","","","","","","","","","",""
"","html-keyboard-response","140","1967233","0.0-2.0-3.0-2.0-31.0","null","<p style=""color: black"">7</p>","null","feedback","","","","","","","","","","","","","","","","","","","","","","",""
"","html-keyboard-response","141","1967537","0.0-2.0-3.0-2.0-32.0","null"," ","null","ITI","","","","","","","","","","","","","","","","","","","","","","",""
"","categorize-html","142","1968323","0.0-2.0-3.0-2.0-33.0","782.0350000401959","<p style=""color: blue"" >3</p>","72","n-switch","false","false","2","2","0.1","75","0","false","","","","","","","","","","","","","","",""
"","html-keyboard-response","143","1969042","0.0-2.0-3.0-2.0-34.0","null","<p style=""color: black"">3</p>","null","feedback","","","","","","","","","","","","","","","","","","","","","","",""
"","html-keyboard-response","144","1969349","0.0-2.0-3.0-2.0-35.0","null"," ","null","ITI","","","","","","","","","","","","","","","","","","","","","","",""
"","categorize-html","145","1969928","0.0-2.0-3.0-2.0-36.0","575.0199999893084","<p style=""color: blue"" >7</p>","75","n-switch","true","false","2","5","0.1","75","0","false","","","","","","","","","","","","","","",""
"","html-keyboard-response","146","1970855","0.0-2.0-3.0-2.0-37.0","null","<p style=""color: black"">7</p>","null","feedback","","","","","","","","","","","","","","","","","","","","","","",""
"","html-keyboard-response","147","1971163","0.0-2.0-3.0-2.0-38.0","null"," ","null","ITI","","","","","","","","","","","","","","","","","","","","","","",""
"","categorize-html","148","1971924","0.0-2.0-3.0-2.0-39.0","757.880000048317","<p style=""color: blue"" >4</p>","72","n-switch","true","false","2","3","0.1","72","0","false","","","","","","","","","","","","","","",""
"","html-keyboard-response","149","1972670","0.0-2.0-3.0-2.0-40.0","null","<p style=""color: black"">4</p>","null","feedback","","","","","","","","","","","","","","","","","","","","","","",""
"","html-keyboard-response","150","1972974","0.0-2.0-3.0-2.0-41.0","null"," ","null","ITI","","","","","","","","","","","","","","","","","","","","","","",""
"","categorize-html","151","1974067","0.0-2.0-3.0-2.0-42.0","1084.915000014007","<p style=""color: blue"" >9</p>","75","n-switch","true","false","2","7","0.1","75","0","false","","","","","","","","","","","","","","",""
"","html-keyboard-response","152","1974497","0.0-2.0-3.0-2.0-43.0","null","<p style=""color: black"">9</p>","null","feedback","","","","","","","","","","","","","","","","","","","","","","",""
"","html-keyboard-response","153","1974800","0.0-2.0-3.0-2.0-44.0","null"," ","null","ITI","","","","","","","","","","","","","","","","","","","","","","",""
"","html-keyboard-response","154","1977563","0.0-2.0-3.0-3.0","2760.0050000473857","<p>You were not accurate enough. You earned 0 points.</p> </p><p>Press the space bar to continue. </p>","32","debrief","","","","","","","","","","","","","","","","","","","","","","",""
"","html-slider-response","155","1986967","0.0-2.0-4.0-0.0","9400.675000040792","<img src=""./static/img/fractal2.png"" width=""250"" height=""250""","","BDM","","","","","","","1","","","","16","","3","12.762041533967627","","","","","","","","",""
"","html-keyboard-response","156","1999404","0.0-2.0-5.0-0.0","12434.420000063255","<p style='font-size':25px> You want <strong> 1.64 </strong> points. </p> <p> The computer offers <strong>3.76</strong> points. </p><p> You will be given 3.76 points if you achieve at least 80% accuracy on this task. </p><img src=""./static/img/fractal2.png"" width=""250"" height=""250"" location='center'></img><p>[Press the space bar to continue.]</p>","32","","","","","","","","","","","","","","","","","","","","","","","",""
"","html-keyboard-response","157","1999507","0.0-2.0-6.0-0.0","null","+","null","","","","","","","","","","","","","","","","","","","","","","","",""
"","html-keyboard-response","158","2006266","0.0-2.0-6.0-1.0-0.0","6757.624999969266","<p>In this task, you will need to follow different rules depending on the color of the numbers on screen.</p><p style=""color: red"">If the number is red, you will need to respond to its magnitude (less than or greater than 5?).</p><p style=""color: blue"">If the number is blue, you will need to respond to its parity (even or odd?).</p><p> As a reminder, the response keys are: </p><p><strong> S   F   H   K </strong></p><p>[Press the space bar to continue.]</p>","32","instructions","","","","","","","","","","","","","","","","","","","","","","",""
"","categorize-html","159","2007305","0.0-2.0-6.0-2.0-0.0","1035.5149999959394","<p style=""color: blue"" >6</p>","70","n-switch","false","true","2","4","0.9","72","1","false","","","","","","","","","","","","","","",""
"","html-keyboard-response","160","2007772","0.0-2.0-6.0-2.0-1.0","null","<p style=""color: black"">6</p>","null","feedback","","","","","","","","","","","","","","","","","","","","","","",""
"","html-keyboard-response","161","2008076","0.0-2.0-6.0-2.0-2.0","null"," ","null","ITI","","","","","","","","","","","","","","","","","","","","","","",""
"","categorize-html","162","2009071","0.0-2.0-6.0-2.0-3.0","991.6450000600889","<p style=""color: red"" >7</p>","70","n-switch","true","true","1","5","0.9","70","1","false","","","","","","","","","","","","","","",""
"","html-keyboard-response","163","2009582","0.0-2.0-6.0-2.0-4.0","null","<p style=""color: black"">7</p>","null","feedback","","","","","","","","","","","","","","","","","","","","","","",""
"","html-keyboard-response","164","2009885","0.0-2.0-6.0-2.0-5.0","null"," ","null","ITI","","","","","","","","","","","","","","","","","","","","","","",""
"","categorize-html","165","2011027","0.0-2.0-6.0-2.0-6.0","1139.1999999759719","<p style=""color: blue"" >2</p>","72","n-switch","true","true","2","1","0.9","72","1","false","","","","","","","","","","","","","","",""
"","html-keyboard-response","166","2011391","0.0-2.0-6.0-2.0-7.0","null","<p style=""color: black"">2</p>","null","feedback","","","","","","","","","","","","","","","","","","","","","","",""
"","html-keyboard-response","167","2011696","0.0-2.0-6.0-2.0-8.0","null"," ","null","ITI","","","","","","","","","","","","","","","","","","","","","","",""
"","categorize-html","168","2012322","0.0-2.0-6.0-2.0-9.0","621.7699999688193","<p style=""color: red"" >7</p>","70","n-switch","true","true","1","5","0.9","70","1","false","","","","","","","","","","","","","","",""
"","html-keyboard-response","169","2013203","0.0-2.0-6.0-2.0-10.0","null","<p style=""color: black"">7</p>","null","feedback","","","","","","","","","","","","","","","","","","","","","","",""
"","html-keyboard-response","170","2013507","0.0-2.0-6.0-2.0-11.0","null"," ","null","ITI","","","","","","","","","","","","","","","","","","","","","","",""
"","categorize-html","171","2014618","0.0-2.0-6.0-2.0-12.0","1107.399999978952","<p style=""color: blue"" >1</p>","75","n-switch","true","true","2","0","0.9","75","1","false","","","","","","","","","","","","","","",""
"","html-keyboard-response","172","2015013","0.0-2.0-6.0-2.0-13.0","null","<p style=""color: black"">1</p>","null","feedback","","","","","","","","","","","","","","","","","","","","","","",""
"","html-keyboard-response","173","2015319","0.0-2.0-6.0-2.0-14.0","null"," ","null","ITI","","","","","","","","","","","","","","","","","","","","","","",""
"","categorize-html","174","2016025","0.0-2.0-6.0-2.0-15.0","702.4600000586361","<p style=""color: red"" >7</p>","70","n-switch","true","true","1","5","0.9","70","1","false","","","","","","","","","","","","","","",""
"","html-keyboard-response","175","2016828","0.0-2.0-6.0-2.0-16.0","null","<p style=""color: black"">7</p>","null","feedback","","","","","","","","","","","","","","","","","","","","","","",""
"","html-keyboard-response","176","2017133","0.0-2.0-6.0-2.0-17.0","null"," ","null","ITI","","","","","","","","","","","","","","","","","","","","","","",""
"","categorize-html","177","2017680","0.0-2.0-6.0-2.0-18.0","543.8149999827147","<p style=""color: red"" >2</p>","83","n-switch","true","false","1","1","0.9","83","1","false","","","","","","","","","","","","","","",""
"","html-keyboard-response","178","2018640","0.0-2.0-6.0-2.0-19.0","null","<p style=""color: black"">2</p>","null","feedback","","","","","","","","","","","","","","","","","","","","","","",""
"","html-keyboard-response","179","2018945","0.0-2.0-6.0-2.0-20.0","null"," ","null","ITI","","","","","","","","","","","","","","","","","","","","","","",""
"","categorize-html","180","2019904","0.0-2.0-6.0-2.0-21.0","956.0800000326708","<p style=""color: blue"" >3</p>","75","n-switch","true","true","2","2","0.9","75","1","false","","","","","","","","","","","","","","",""
"","html-keyboard-response","181","2020456","0.0-2.0-6.0-2.0-22.0","null","<p style=""color: black"">3</p>","null","feedback","","","","","","","","","","","","","","","","","","","","","","",""
"","html-keyboard-response","182","2020762","0.0-2.0-6.0-2.0-23.0","null"," ","null","ITI","","","","","","","","","","","","","","","","","","","","","","",""
"","categorize-html","183","2021624","0.0-2.0-6.0-2.0-24.0","859.085000003688","<p style=""color: red"" >6</p>","70","n-switch","true","true","1","4","0.9","70","1","false","","","","","","","","","","","","","","",""
"","html-keyboard-response","184","2022268","0.0-2.0-6.0-2.0-25.0","null","<p style=""color: black"">6</p>","null","feedback","","","","","","","","","","","","","","","","","","","","","","",""
"","html-keyboard-response","185","2022574","0.0-2.0-6.0-2.0-26.0","null"," ","null","ITI","","","","","","","","","","","","","","","","","","","","","","",""
"","categorize-html","186","2023464","0.0-2.0-6.0-2.0-27.0","887.1250000083819","<p style=""color: blue"" >6</p>","72","n-switch","true","true","2","4","0.9","72","1","false","","","","","","","","","","","","","","",""
"","html-keyboard-response","187","2024080","0.0-2.0-6.0-2.0-28.0","null","<p style=""color: black"">6</p>","null","feedback","","","","","","","","","","","","","","","","","","","","","","",""
"","html-keyboard-response","188","2024384","0.0-2.0-6.0-2.0-29.0","null"," ","null","ITI","","","","","","","","","","","","","","","","","","","","","","",""
"","categorize-html","189","2025337","0.0-2.0-6.0-2.0-30.0","949.1500000003725","<p style=""color: red"" >3</p>","83","n-switch","true","true","1","2","0.9","83","1","false","","","","","","","","","","","","","","",""
"","html-keyboard-response","190","2025893","0.0-2.0-6.0-2.0-31.0","null","<p style=""color: black"">3</p>","null","feedback","","","","","","","","","","","","","","","","","","","","","","",""
"","html-keyboard-response","191","2026195","0.0-2.0-6.0-2.0-32.0","null"," ","null","ITI","","","","","","","","","","","","","","","","","","","","","","",""
"","categorize-html","192","2027405","0.0-2.0-6.0-2.0-33.0","1206.5350000048056","<p style=""color: blue"" >3</p>","75","n-switch","true","true","2","2","0.9","75","1","false","","","","","","","","","","","","","","",""
"","html-keyboard-response","193","2027701","0.0-2.0-6.0-2.0-34.0","null","<p style=""color: black"">3</p>","null","feedback","","","","","","","","","","","","","","","","","","","","","","",""
"","html-keyboard-response","194","2028004","0.0-2.0-6.0-2.0-35.0","null"," ","null","ITI","","","","","","","","","","","","","","","","","","","","","","",""
"","categorize-html","195","2028765","0.0-2.0-6.0-2.0-36.0","757.6049999333918","<p style=""color: red"" >8</p>","70","n-switch","true","true","1","6","0.9","70","1","false","","","","","","","","","","","","","","",""
"","html-keyboard-response","196","2029510","0.0-2.0-6.0-2.0-37.0","null","<p style=""color: black"">8</p>","null","feedback","","","","","","","","","","","","","","","","","","","","","","",""
"","html-keyboard-response","197","2029812","0.0-2.0-6.0-2.0-38.0","null"," ","null","ITI","","","","","","","","","","","","","","","","","","","","","","",""
"","categorize-html","198","2030967","0.0-2.0-6.0-2.0-39.0","1151.6050000209361","<p style=""color: blue"" >4</p>","72","n-switch","true","true","2","3","0.9","72","1","false","","","","","","","","","","","","","","",""
"","html-keyboard-response","199","2031320","0.0-2.0-6.0-2.0-40.0","null","<p style=""color: black"">4</p>","null","feedback","","","","","","","","","","","","","","","","","","","","","","",""
"","html-keyboard-response","200","2031623","0.0-2.0-6.0-2.0-41.0","null"," ","null","ITI","","","","","","","","","","","","","","","","","","","","","","",""
"","categorize-html","201","2032354","0.0-2.0-6.0-2.0-42.0","726.7950000241399","<p style=""color: red"" >7</p>","70","n-switch","true","true","1","5","0.9","70","1","false","","","","","","","","","","","","","","",""
"","html-keyboard-response","202","2033131","0.0-2.0-6.0-2.0-43.0","null","<p style=""color: black"">7</p>","null","feedback","","","","","","","","","","","","","","","","","","","","","","",""
"","html-keyboard-response","203","2033436","0.0-2.0-6.0-2.0-44.0","null"," ","null","ITI","","","","","","","","","","","","","","","","","","","","","","",""
"","html-keyboard-response","204","2037342","0.0-2.0-6.0-3.0","3903.2250000163913","<p>Great job! You earned 3.76 point(s) from this task.</p> </p><p>Press the space bar to continue. </p>","32","debrief","","","","","","","","","","","","","","","","","","","","","","",""
"","html-slider-response","205","2043897","0.0-2.0-8.0-0.0","6551.184999989346","<img src=""./static/img/fractal2.png"" width=""250"" height=""250""","","BDM","","","","","","","2","","","","48","","3","93.22883768435086","","","","","","","","",""
"","html-keyboard-response","206","2069003","0.0-2.0-9.0-0.0","25103.239999967627","<p style='font-size':25px> You want <strong> 2.92 </strong> points. </p> <p> The computer offers <strong>2.60</strong> points. </p><p> You will do the following task instead to earn 1 point. </p> <img src=""./static/img/fractal3.jpg"" width=""250"" height=""250"" location='center'></img><p>[Press the space bar to continue.]</p>","32","","","","","","","","","","","","","","","","","","","","","","","",""
"","html-keyboard-response","207","2069109","0.0-2.0-11.0-0.0","null","+","null","","","","","","","","","","","","","","","","","","","","","","","",""
"","html-keyboard-response","208","2072147","0.0-2.0-11.0-1.0-0.0","3036.3199999555945","<p>In this task, you will need to follow different rules depending on the color of the numbers on screen.</p><p style=""color: red"">If the number is red, you will need to respond to its magnitude (less than or greater than 5?).</p><p style=""color: blue"">If the number is blue, you will need to respond to its parity (even or odd?).</p><p> As a reminder, the response keys are: </p><p><strong> S   F   H   K </strong></p><p>[Press the space bar to continue.]</p>","32","instructions","","","","","","","","","","","","","","","","","","","","","","",""
"","categorize-html","209","2073360","0.0-2.0-11.0-2.0-0.0","1209.3099999474362","<p style=""color: red"" >1</p>","83","n-switch","true","false","1","0","0.1","83","2","false","","","","","","","","","","","","","","",""
"","html-keyboard-response","210","2073655","0.0-2.0-11.0-2.0-1.0","null","<p style=""color: black"">1</p>","null","feedback","","","","","","","","","","","","","","","","","","","","","","",""
"","html-keyboard-response","211","2073959","0.0-2.0-11.0-2.0-2.0","null"," ","null","ITI","","","","","","","","","","","","","","","","","","","","","","",""
"","categorize-html","212","2075119","0.0-2.0-11.0-2.0-3.0","1157.1000000694767","<p style=""color: red"" >6</p>","83","n-switch","false","false","1","4","0.1","70","2","false","","","","","","","","","","","","","","",""
"","html-keyboard-response","213","2075477","0.0-2.0-11.0-2.0-4.0","null","<p style=""color: black"">6</p>","null","feedback","","","","","","","","","","","","","","","","","","","","","","",""
"","html-keyboard-response","214","2075780","0.0-2.0-11.0-2.0-5.0","null"," ","null","ITI","","","","","","","","","","","","","","","","","","","","","","",""
"","categorize-html","215","2076606","0.0-2.0-11.0-2.0-6.0","822.4100000225008","<p style=""color: red"" >7</p>","70","n-switch","true","false","1","5","0.1","70","2","false","","","","","","","","","","","","","","",""
"","html-keyboard-response","216","2077289","0.0-2.0-11.0-2.0-7.0","null","<p style=""color: black"">7</p>","null","feedback","","","","","","","","","","","","","","","","","","","","","","",""
"","html-keyboard-response","217","2077593","0.0-2.0-11.0-2.0-8.0","null"," ","null","ITI","","","","","","","","","","","","","","","","","","","","","","",""
"","categorize-html","218","2078116","0.0-2.0-11.0-2.0-9.0","519.9649999849498","<p style=""color: red"" >1</p>","83","n-switch","true","false","1","0","0.1","83","2","false","","","","","","","","","","","","","","",""
"","html-keyboard-response","219","2079100","0.0-2.0-11.0-2.0-10.0","null","<p style=""color: black"">1</p>","null","feedback","","","","","","","","","","","","","","","","","","","","","","",""
"","html-keyboard-response","220","2079405","0.0-2.0-11.0-2.0-11.0","null"," ","null","ITI","","","","","","","","","","","","","","","","","","","","","","",""
"","categorize-html","221","2080043","0.0-2.0-11.0-2.0-12.0","634.7899999236688","<p style=""color: red"" >4</p>","70","n-switch","false","false","1","3","0.1","83","2","false","","","","","","","","","","","","","","",""
"","html-keyboard-response","222","2080915","0.0-2.0-11.0-2.0-13.0","null","<p style=""color: black"">4</p>","null","feedback","","","","","","","","","","","","","","","","","","","","","","",""
"","html-keyboard-response","223","2081223","0.0-2.0-11.0-2.0-14.0","null"," ","null","ITI","","","","","","","","","","","","","","","","","","","","","","",""
"","categorize-html","224","2082335","0.0-2.0-11.0-2.0-15.0","1108.6049999576062","<p style=""color: blue"" >3</p>","75","n-switch","true","true","2","2","0.1","75","2","false","","","","","","","","","","","","","","",""
"","html-keyboard-response","225","2082729","0.0-2.0-11.0-2.0-16.0","null","<p style=""color: black"">3</p>","null","feedback","","","","","","","","","","","","","","","","","","","","","","",""
"","html-keyboard-response","226","2083034","0.0-2.0-11.0-2.0-17.0","null"," ","null","ITI","","","","","","","","","","","","","","","","","","","","","","",""
"","categorize-html","227","2083978","0.0-2.0-11.0-2.0-18.0","940.8650000113994","<p style=""color: blue"" >9</p>","75","n-switch","true","false","2","7","0.1","75","2","false","","","","","","","","","","","","","","",""
"","html-keyboard-response","228","2084540","0.0-2.0-11.0-2.0-19.0","null","<p style=""color: black"">9</p>","null","feedback","","","","","","","","","","","","","","","","","","","","","","",""
"","html-keyboard-response","229","2084844","0.0-2.0-11.0-2.0-20.0","null"," ","null","ITI","","","","","","","","","","","","","","","","","","","","","","",""
"","categorize-html","230","2085443","0.0-2.0-11.0-2.0-21.0","595.1750000240281","<p style=""color: blue"" >4</p>","72","n-switch","true","false","2","3","0.1","72","2","false","","","","","","","","","","","","","","",""
"","html-keyboard-response","231","2086352","0.0-2.0-11.0-2.0-22.0","null","<p style=""color: black"">4</p>","null","feedback","","","","","","","","","","","","","","","","","","","","","","",""
"","html-keyboard-response","232","2086657","0.0-2.0-11.0-2.0-23.0","null"," ","null","ITI","","","","","","","","","","","","","","","","","","","","","","",""
"","categorize-html","233","2087506","0.0-2.0-11.0-2.0-24.0","845.0799999991432","<p style=""color: blue"" >6</p>","72","n-switch","true","false","2","4","0.1","72","2","false","","","","","","","","","","","","","","",""
"","html-keyboard-response","234","2088163","0.0-2.0-11.0-2.0-25.0","null","<p style=""color: black"">6</p>","null","feedback","","","","","","","","","","","","","","","","","","","","","","",""
"","html-keyboard-response","235","2088481","0.0-2.0-11.0-2.0-26.0","null"," ","null","ITI","","","","","","","","","","","","","","","","","","","","","","",""
"","categorize-html","236","2089422","0.0-2.0-11.0-2.0-27.0","934.2300000134856","<p style=""color: red"" >9</p>","70","n-switch","true","true","1","7","0.1","70","2","false","","","","","","","","","","","","","","",""
"","html-keyboard-response","237","2089991","0.0-2.0-11.0-2.0-28.0","null","<p style=""color: black"">9</p>","null","feedback","","","","","","","","","","","","","","","","","","","","","","",""
"","html-keyboard-response","238","2090297","0.0-2.0-11.0-2.0-29.0","null"," ","null","ITI","","","","","","","","","","","","","","","","","","","","","","",""
"","categorize-html","239","2091311","0.0-2.0-11.0-2.0-30.0","1011.4450000692159","<p style=""color: red"" >6</p>","70","n-switch","true","false","1","4","0.1","70","2","false","","","","","","","","","","","","","","",""
"","html-keyboard-response","240","2091802","0.0-2.0-11.0-2.0-31.0","null","<p style=""color: black"">6</p>","null","feedback","","","","","","","","","","","","","","","","","","","","","","",""
"","html-keyboard-response","241","2092104","0.0-2.0-11.0-2.0-32.0","null"," ","null","ITI","","","","","","","","","","","","","","","","","","","","","","",""
"","categorize-html","242","2092687","0.0-2.0-11.0-2.0-33.0","578.8249999750406","<p style=""color: red"" >3</p>","83","n-switch","true","false","1","2","0.1","83","2","false","","","","","","","","","","","","","","",""
"","html-keyboard-response","243","2093612","0.0-2.0-11.0-2.0-34.0","null","<p style=""color: black"">3</p>","null","feedback","","","","","","","","","","","","","","","","","","","","","","",""
"","html-keyboard-response","244","2093915","0.0-2.0-11.0-2.0-35.0","null"," ","null","ITI","","","","","","","","","","","","","","","","","","","","","","",""
"","categorize-html","245","2094873","0.0-2.0-11.0-2.0-36.0","955.4599999682978","<p style=""color: red"" >1</p>","83","n-switch","true","false","1","0","0.1","83","2","false","","","","","","","","","","","","","","",""
"","html-keyboard-response","246","2095422","0.0-2.0-11.0-2.0-37.0","null","<p style=""color: black"">1</p>","null","feedback","","","","","","","","","","","","","","","","","","","","","","",""
"","html-keyboard-response","247","2095727","0.0-2.0-11.0-2.0-38.0","null"," ","null","ITI","","","","","","","","","","","","","","","","","","","","","","",""
"","categorize-html","248","2096161","0.0-2.0-11.0-2.0-39.0","430.9600000269711","<p style=""color: red"" >1</p>","83","n-switch","true","false","1","0","0.1","83","2","false","","","","","","","","","","","","","","",""
"","html-keyboard-response","249","2097233","0.0-2.0-11.0-2.0-40.0","null","<p style=""color: black"">1</p>","null","feedback","","","","","","","","","","","","","","","","","","","","","","",""
"","html-keyboard-response","250","2097539","0.0-2.0-11.0-2.0-41.0","null"," ","null","ITI","","","","","","","","","","","","","","","","","","","","","","",""
"","categorize-html","251","2099053","0.0-2.0-11.0-2.0-42.0","null","<p style=""color: red"" >2</p>","null","n-switch","false","false","1","1","0.1","83","2","false","","","","","","","","","","","","","","",""
"","html-keyboard-response","252","2099064","0.0-2.0-11.0-2.0-43.0","null","<p style=""color: black"">2</p>","null","feedback","","","","","","","","","","","","","","","","","","","","","","",""
"","html-keyboard-response","253","2099368","0.0-2.0-11.0-2.0-44.0","19.450000021606684"," ","83","ITI","","","","","","","","","","","","","","","","","","","","","","",""
"","html-keyboard-response","254","2101044","0.0-2.0-11.0-3.0","1674.3199999909848","<p>Great job! You earned 1 point(s) from this task.</p> </p><p>Press the space bar to continue. </p>","32","debrief","","","","","","","","","","","","","","","","","","","","","","",""
"","html-slider-response","255","2107706","0.0-2.0-12.0-0.0","6658.154999953695","<img src=""./static/img/fractal2.png"" width=""250"" height=""250""","","BDM","","","","","","","3","","","","48","","3","40.498296467187835","","","","","","","","",""
"","html-keyboard-response","256","2111886","0.0-2.0-13.0-0.0","4177.724999957718","<p style='font-size':25px> You want <strong> 2.92 </strong> points. </p> <p> The computer offers <strong>1.36</strong> points. </p><p> You will do the following task instead to earn 1 point. </p> <img src=""./static/img/fractal3.jpg"" width=""250"" height=""250"" location='center'></img><p>[Press the space bar to continue.]</p>","32","","","","","","","","","","","","","","","","","","","","","","","",""
"","html-keyboard-response","257","2111990","0.0-2.0-15.0-0.0","null","+","null","","","","","","","","","","","","","","","","","","","","","","","",""
"","html-keyboard-response","258","2112763","0.0-2.0-15.0-1.0-0.0","770.9550000727177","<p>In this task, you will need to follow different rules depending on the color of the numbers on screen.</p><p style=""color: red"">If the number is red, you will need to respond to its magnitude (less than or greater than 5?).</p><p style=""color: blue"">If the number is blue, you will need to respond to its parity (even or odd?).</p><p> As a reminder, the response keys are: </p><p><strong> S   F   H   K </strong></p><p>[Press the space bar to continue.]</p>","32","instructions","","","","","","","","","","","","","","","","","","","","","","",""
"","categorize-html","259","2114269","0.0-2.0-15.0-2.0-0.0","null","<p style=""color: red"" >4</p>","null","n-switch","false","false","1","3","0.1","83","3","false","","","","","","","","","","","","","","",""
"","html-keyboard-response","260","2114276","0.0-2.0-15.0-2.0-1.0","0.3450000658631325","<p style=""color: black"">4</p>","83","feedback","","","","","","","","","","","","","","","","","","","","","","",""
"","html-keyboard-response","261","2114579","0.0-2.0-15.0-2.0-2.0","null"," ","null","ITI","","","","","","","","","","","","","","","","","","","","","","",""
"","categorize-html","262","2115363","0.0-2.0-15.0-2.0-3.0","780.0249999854714","<p style=""color: red"" >9</p>","70","n-switch","true","false","1","7","0.1","70","3","false","","","","","","","","","","","","","","",""
"","html-keyboard-response","263","2116088","0.0-2.0-15.0-2.0-4.0","null","<p style=""color: black"">9</p>","null","feedback","","","","","","","","","","","","","","","","","","","","","","",""
"","html-keyboard-response","264","2116393","0.0-2.0-15.0-2.0-5.0","null"," ","null","ITI","","","","","","","","","","","","","","","","","","","","","","",""
"","categorize-html","265","2117073","0.0-2.0-15.0-2.0-6.0","676.9000000786036","<p style=""color: red"" >1</p>","83","n-switch","true","false","1","0","0.1","83","3","false","","","","","","","","","","","","","","",""
"","html-keyboard-response","266","2117903","0.0-2.0-15.0-2.0-7.0","null","<p style=""color: black"">1</p>","null","feedback","","","","","","","","","","","","","","","","","","","","","","",""
"","html-keyboard-response","267","2118208","0.0-2.0-15.0-2.0-8.0","null"," ","null","ITI","","","","","","","","","","","","","","","","","","","","","","",""
"","categorize-html","268","2118950","0.0-2.0-15.0-2.0-9.0","739.1200000420213","<p style=""color: red"" >7</p>","70","n-switch","true","false","1","5","0.1","70","3","false","","","","","","","","","","","","","","",""
"","html-keyboard-response","269","2119713","0.0-2.0-15.0-2.0-10.0","null","<p style=""color: black"">7</p>","null","feedback","","","","","","","","","","","","","","","","","","","","","","",""
"","html-keyboard-response","270","2120019","0.0-2.0-15.0-2.0-11.0","null"," ","null","ITI","","","","","","","","","","","","","","","","","","","","","","",""
"","categorize-html","271","2120587","0.0-2.0-15.0-2.0-12.0","564.515000092797","<p style=""color: red"" >6</p>","70","n-switch","true","false","1","4","0.1","70","3","false","","","","","","","","","","","","","","",""
"","html-keyboard-response","272","2121531","0.0-2.0-15.0-2.0-13.0","null","<p style=""color: black"">6</p>","null","feedback","","","","","","","","","","","","","","","","","","","","","","",""
"","html-keyboard-response","273","2121833","0.0-2.0-15.0-2.0-14.0","null"," ","null","ITI","","","","","","","","","","","","","","","","","","","","","","",""
"","categorize-html","274","2122891","0.0-2.0-15.0-2.0-15.0","1054.7699999297038","<p style=""color: blue"" >2</p>","72","n-switch","true","true","2","1","0.1","72","3","false","","","","","","","","","","","","","","",""
"","html-keyboard-response","275","2123341","0.0-2.0-15.0-2.0-16.0","null","<p style=""color: black"">2</p>","null","feedback","","","","","","","","","","","","","","","","","","","","","","",""
"","html-keyboard-response","276","2123646","0.0-2.0-15.0-2.0-17.0","null"," ","null","ITI","","","","","","","","","","","","","","","","","","","","","","",""
"","categorize-html","277","2124554","0.0-2.0-15.0-2.0-18.0","904.2650000192225","<p style=""color: red"" >1</p>","83","n-switch","true","true","1","0","0.1","83","3","false","","","","","","","","","","","","","","",""
"","html-keyboard-response","278","2125153","0.0-2.0-15.0-2.0-19.0","null","<p style=""color: black"">1</p>","null","feedback","","","","","","","","","","","","","","","","","","","","","","",""
"","html-keyboard-response","279","2125458","0.0-2.0-15.0-2.0-20.0","null"," ","null","ITI","","","","","","","","","","","","","","","","","","","","","","",""
"","categorize-html","280","2126249","0.0-2.0-15.0-2.0-21.0","788.425000035204","<p style=""color: red"" >6</p>","70","n-switch","true","false","1","4","0.1","70","3","false","","","","","","","","","","","","","","",""
"","html-keyboard-response","281","2126965","0.0-2.0-15.0-2.0-22.0","null","<p style=""color: black"">6</p>","null","feedback","","","","","","","","","","","","","","","","","","","","","","",""
"","html-keyboard-response","282","2127269","0.0-2.0-15.0-2.0-23.0","null"," ","null","ITI","","","","","","","","","","","","","","","","","","","","","","",""
"","categorize-html","283","2127756","0.0-2.0-15.0-2.0-24.0","483.54000004474074","<p style=""color: red"" >7</p>","70","n-switch","true","false","1","5","0.1","70","3","false","","","","","","","","","","","","","","",""
"","html-keyboard-response","284","2128774","0.0-2.0-15.0-2.0-25.0","null","<p style=""color: black"">7</p>","null","feedback","","","","","","","","","","","","","","","","","","","","","","",""
"","html-keyboard-response","285","2129078","0.0-2.0-15.0-2.0-26.0","null"," ","null","ITI","","","","","","","","","","","","","","","","","","","","","","",""
"","categorize-html","286","2129480","0.0-2.0-15.0-2.0-27.0","398.8900000695139","<p style=""color: red"" >9</p>","70","n-switch","true","false","1","7","0.1","70","3","false","","","","","","","","","","","","","","",""
"","html-keyboard-response","287","2130585","0.0-2.0-15.0-2.0-28.0","null","<p style=""color: black"">9</p>","null","feedback","","","","","","","","","","","","","","","","","","","","","","",""
"","html-keyboard-response","288","2130889","0.0-2.0-15.0-2.0-29.0","null"," ","null","ITI","","","","","","","","","","","","","","","","","","","","","","",""
"","categorize-html","289","2131479","0.0-2.0-15.0-2.0-30.0","585.3999999817461","<p style=""color: red"" >3</p>","83","n-switch","true","false","1","2","0.1","83","3","false","","","","","","","","","","","","","","",""
"","html-keyboard-response","290","2132400","0.0-2.0-15.0-2.0-31.0","null","<p style=""color: black"">3</p>","null","feedback","","","","","","","","","","","","","","","","","","","","","","",""
"","html-keyboard-response","291","2132703","0.0-2.0-15.0-2.0-32.0","null"," ","null","ITI","","","","","","","","","","","","","","","","","","","","","","",""
"","categorize-html","292","2133812","0.0-2.0-15.0-2.0-33.0","1105.4950000252575","<p style=""color: red"" >8</p>","70","n-switch","true","false","1","6","0.1","70","3","false","","","","","","","","","","","","","","",""
"","html-keyboard-response","293","2134208","0.0-2.0-15.0-2.0-34.0","null","<p style=""color: black"">8</p>","null","feedback","","","","","","","","","","","","","","","","","","","","","","",""
"","html-keyboard-response","294","2134511","0.0-2.0-15.0-2.0-35.0","null"," ","null","ITI","","","","","","","","","","","","","","","","","","","","","","",""
"","categorize-html","295","2135053","0.0-2.0-15.0-2.0-36.0","537.4000000301749","<p style=""color: red"" >6</p>","70","n-switch","true","false","1","4","0.1","70","3","false","","","","","","","","","","","","","","",""
"","html-keyboard-response","296","2136020","0.0-2.0-15.0-2.0-37.0","null","<p style=""color: black"">6</p>","null","feedback","","","","","","","","","","","","","","","","","","","","","","",""
"","html-keyboard-response","297","2136323","0.0-2.0-15.0-2.0-38.0","null"," ","null","ITI","","","","","","","","","","","","","","","","","","","","","","",""
"","categorize-html","298","2136804","0.0-2.0-15.0-2.0-39.0","478.4800000488758","<p style=""color: red"" >1</p>","83","n-switch","true","false","1","0","0.1","83","3","false","","","","","","","","","","","","","","",""
"","html-keyboard-response","299","2137831","0.0-2.0-15.0-2.0-40.0","null","<p style=""color: black"">1</p>","null","feedback","","","","","","","","","","","","","","","","","","","","","","",""
"","html-keyboard-response","300","2138135","0.0-2.0-15.0-2.0-41.0","null"," ","null","ITI","","","","","","","","","","","","","","","","","","","","","","",""
"","categorize-html","301","2138633","0.0-2.0-15.0-2.0-42.0","494.2150000715628","<p style=""color: red"" >7</p>","70","n-switch","true","false","1","5","0.1","70","3","false","","","","","","","","","","","","","","",""
"","html-keyboard-response","302","2139642","0.0-2.0-15.0-2.0-43.0","null","<p style=""color: black"">7</p>","null","feedback","","","","","","","","","","","","","","","","","","","","","","",""
"","html-keyboard-response","303","2139944","0.0-2.0-15.0-2.0-44.0","null"," ","null","ITI","","","","","","","","","","","","","","","","","","","","","","",""
"","html-keyboard-response","304","2141762","0.0-2.0-15.0-3.0","1816.080000018701","<p>Great job! You earned 1 point(s) from this task.</p> </p><p>Press the space bar to continue. </p>","32","debrief","","","","","","","","","","","","","","","","","","","","","","",""
"","html-slider-response","305","2146935","0.0-2.0-16.0-0.0","5169.449999928474","<img src=""./static/img/fractal2.png"" width=""250"" height=""250""","","BDM","","","","","","","4","","","","56","","3","63.308800155870685","","","","","","","","",""
"","html-keyboard-response","306","2150045","0.0-2.0-17.0-0.0","3106.5850000595674","<p style='font-size':25px> You want <strong> 3.24 </strong> points. </p> <p> The computer offers <strong>2.96</strong> points. </p><p> You will do the following task instead to earn 1 point. </p> <img src=""./static/img/fractal3.jpg"" width=""250"" height=""250"" location='center'></img><p>[Press the space bar to continue.]</p>","32","","","","","","","","","","","","","","","","","","","","","","","",""
"","html-keyboard-response","307","2150151","0.0-2.0-19.0-0.0","null","+","null","","","","","","","","","","","","","","","","","","","","","","","",""
"","html-keyboard-response","308","2152342","0.0-2.0-19.0-1.0-0.0","2189.5950000034645","<p>In this task, you will need to follow different rules depending on the color of the numbers on screen.</p><p style=""color: red"">If the number is red, you will need to respond to its magnitude (less than or greater than 5?).</p><p style=""color: blue"">If the number is blue, you will need to respond to its parity (even or odd?).</p><p> As a reminder, the response keys are: </p><p><strong> S   F   H   K </strong></p><p>[Press the space bar to continue.]</p>","32","instructions","","","","","","","","","","","","","","","","","","","","","","",""
"","categorize-html","309","2153123","0.0-2.0-19.0-2.0-0.0","776.975000044331","<p style=""color: red"" >1</p>","83","n-switch","true","false","1","0","0.1","83","4","false","","","","","","","","","","","","","","",""
"","html-keyboard-response","310","2153851","0.0-2.0-19.0-2.0-1.0","null","<p style=""color: black"">1</p>","null","feedback","","","","","","","","","","","","","","","","","","","","","","",""
"","html-keyboard-response","311","2154155","0.0-2.0-19.0-2.0-2.0","null"," ","null","ITI","","","","","","","","","","","","","","","","","","","","","","",""
"","categorize-html","312","2154706","0.0-2.0-19.0-2.0-3.0","547.8799999691546","<p style=""color: red"" >6</p>","70","n-switch","true","false","1","4","0.1","70","4","false","","","","","","","","","","","","","","",""
"","html-keyboard-response","313","2155663","0.0-2.0-19.0-2.0-4.0","null","<p style=""color: black"">6</p>","null","feedback","","","","","","","","","","","","","","","","","","","","","","",""
"","html-keyboard-response","314","2155967","0.0-2.0-19.0-2.0-5.0","null"," ","null","ITI","","","","","","","","","","","","","","","","","","","","","","",""
"","categorize-html","315","2156571","0.0-2.0-19.0-2.0-6.0","600.70499998983","<p style=""color: red"" >1</p>","83","n-switch","true","false","1","0","0.1","83","4","false","","","","","","","","","","","","","","",""
"","html-keyboard-response","316","2157482","0.0-2.0-19.0-2.0-7.0","null","<p style=""color: black"">1</p>","null","feedback","","","","","","","","","","","","","","","","","","","","","","",""
"","html-keyboard-response","317","2157785","0.0-2.0-19.0-2.0-8.0","null"," ","null","ITI","","","","","","","","","","","","","","","","","","","","","","",""
"","categorize-html","318","2158898","0.0-2.0-19.0-2.0-9.0","1109.360000002198","<p style=""color: blue"" >6</p>","72","n-switch","true","true","2","4","0.1","72","4","false","","","","","","","","","","","","","","",""
"","html-keyboard-response","319","2159292","0.0-2.0-19.0-2.0-10.0","null","<p style=""color: black"">6</p>","null","feedback","","","","","","","","","","","","","","","","","","","","","","",""
"","html-keyboard-response","320","2159596","0.0-2.0-19.0-2.0-11.0","null"," ","null","ITI","","","","","","","","","","","","","","","","","","","","","","",""
"","categorize-html","321","2160350","0.0-2.0-19.0-2.0-12.0","751.0350000811741","<p style=""color: blue"" >7</p>","75","n-switch","true","false","2","5","0.1","75","4","false","","","","","","","","","","","","","","",""
"","html-keyboard-response","322","2161103","0.0-2.0-19.0-2.0-13.0","null","<p style=""color: black"">7</p>","null","feedback","","","","","","","","","","","","","","","","","","","","","","",""
"","html-keyboard-response","323","2161406","0.0-2.0-19.0-2.0-14.0","null"," ","null","ITI","","","","","","","","","","","","","","","","","","","","","","",""
"","categorize-html","324","2162205","0.0-2.0-19.0-2.0-15.0","795.9650000557303","<p style=""color: blue"" >9</p>","75","n-switch","true","false","2","7","0.1","75","4","false","","","","","","","","","","","","","","",""
"","html-keyboard-response","325","2162913","0.0-2.0-19.0-2.0-16.0","null","<p style=""color: black"">9</p>","null","feedback","","","","","","","","","","","","","","","","","","","","","","",""
"","html-keyboard-response","326","2163219","0.0-2.0-19.0-2.0-17.0","null"," ","null","ITI","","","","","","","","","","","","","","","","","","","","","","",""
"","categorize-html","327","2164338","0.0-2.0-19.0-2.0-18.0","1115.2149999979883","<p style=""color: red"" >2</p>","83","n-switch","true","true","1","1","0.1","83","4","false","","","","","","","","","","","","","","",""
"","html-keyboard-response","328","2164724","0.0-2.0-19.0-2.0-19.0","null","<p style=""color: black"">2</p>","null","feedback","","","","","","","","","","","","","","","","","","","","","","",""
"","html-keyboard-response","329","2165026","0.0-2.0-19.0-2.0-20.0","null"," ","null","ITI","","","","","","","","","","","","","","","","","","","","","","",""
"","categorize-html","330","2165621","0.0-2.0-19.0-2.0-21.0","591.1949999863282","<p style=""color: red"" >7</p>","70","n-switch","true","false","1","5","0.1","70","4","false","","","","","","","","","","","","","","",""
"","html-keyboard-response","331","2166535","0.0-2.0-19.0-2.0-22.0","null","<p style=""color: black"">7</p>","null","feedback","","","","","","","","","","","","","","","","","","","","","","",""
"","html-keyboard-response","332","2166840","0.0-2.0-19.0-2.0-23.0","null"," ","null","ITI","","","","","","","","","","","","","","","","","","","","","","",""
"","categorize-html","333","2167468","0.0-2.0-19.0-2.0-24.0","624.3300000205636","<p style=""color: red"" >9</p>","70","n-switch","true","false","1","7","0.1","70","4","false","","","","","","","","","","","","","","",""
"","html-keyboard-response","334","2168351","0.0-2.0-19.0-2.0-25.0","null","<p style=""color: black"">9</p>","null","feedback","","","","","","","","","","","","","","","","","","","","","","",""
"","html-keyboard-response","335","2168654","0.0-2.0-19.0-2.0-26.0","null"," ","null","ITI","","","","","","","","","","","","","","","","","","","","","","",""
"","categorize-html","336","2169124","0.0-2.0-19.0-2.0-27.0","466.3149999687448","<p style=""color: red"" >3</p>","83","n-switch","true","false","1","2","0.1","83","4","false","","","","","","","","","","","","","","",""
"","html-keyboard-response","337","2170160","0.0-2.0-19.0-2.0-28.0","null","<p style=""color: black"">3</p>","null","feedback","","","","","","","","","","","","","","","","","","","","","","",""
"","html-keyboard-response","338","2170480","0.0-2.0-19.0-2.0-29.0","null"," ","null","ITI","","","","","","","","","","","","","","","","","","","","","","",""
"","categorize-html","339","2171261","0.0-2.0-19.0-2.0-30.0","777.3100000340492","<p style=""color: red"" >4</p>","83","n-switch","true","false","1","3","0.1","83","4","false","","","","","","","","","","","","","","",""
"","html-keyboard-response","340","2171986","0.0-2.0-19.0-2.0-31.0","null","<p style=""color: black"">4</p>","null","feedback","","","","","","","","","","","","","","","","","","","","","","",""
"","html-keyboard-response","341","2172288","0.0-2.0-19.0-2.0-32.0","null"," ","null","ITI","","","","","","","","","","","","","","","","","","","","","","",""
"","categorize-html","342","2172875","0.0-2.0-19.0-2.0-33.0","583.890000008978","<p style=""color: red"" >9</p>","70","n-switch","true","false","1","7","0.1","70","4","false","","","","","","","","","","","","","","",""
"","html-keyboard-response","343","2173796","0.0-2.0-19.0-2.0-34.0","null","<p style=""color: black"">9</p>","null","feedback","","","","","","","","","","","","","","","","","","","","","","",""
"","html-keyboard-response","344","2174099","0.0-2.0-19.0-2.0-35.0","null"," ","null","ITI","","","","","","","","","","","","","","","","","","","","","","",""
"","categorize-html","345","2174641","0.0-2.0-19.0-2.0-36.0","537.889999919571","<p style=""color: red"" >3</p>","83","n-switch","true","false","1","2","0.1","83","4","false","","","","","","","","","","","","","","",""
"","html-keyboard-response","346","2175607","0.0-2.0-19.0-2.0-37.0","null","<p style=""color: black"">3</p>","null","feedback","","","","","","","","","","","","","","","","","","","","","","",""
"","html-keyboard-response","347","2175911","0.0-2.0-19.0-2.0-38.0","null"," ","null","ITI","","","","","","","","","","","","","","","","","","","","","","",""
"","categorize-html","348","2176287","0.0-2.0-19.0-2.0-39.0","372.8300000075251","<p style=""color: red"" >3</p>","83","n-switch","true","false","1","2","0.1","83","4","false","","","","","","","","","","","","","","",""
"","html-keyboard-response","349","2177420","0.0-2.0-19.0-2.0-40.0","null","<p style=""color: black"">3</p>","null","feedback","","","","","","","","","","","","","","","","","","","","","","",""
"","html-keyboard-response","350","2177722","0.0-2.0-19.0-2.0-41.0","null"," ","null","ITI","","","","","","","","","","","","","","","","","","","","","","",""
"","categorize-html","351","2178205","0.0-2.0-19.0-2.0-42.0","480.13499996159226","<p style=""color: red"" >3</p>","83","n-switch","true","false","1","2","0.1","83","4","false","","","","","","","","","","","","","","",""
"","html-keyboard-response","352","2179227","0.0-2.0-19.0-2.0-43.0","null","<p style=""color: black"">3</p>","null","feedback","","","","","","","","","","","","","","","","","","","","","","",""
"","html-keyboard-response","353","2179532","0.0-2.0-19.0-2.0-44.0","null"," ","null","ITI","","","","","","","","","","","","","","","","","","","","","","",""
"","html-keyboard-response","354","2180451","0.0-2.0-19.0-3.0","916.1300000268966","<p>Great job! You earned 1 point(s) from this task.</p> </p><p>Press the space bar to continue. </p>","32","debrief","","","","","","","","","","","","","","","","","","","","","","",""
"","html-slider-response","355","2188055","0.0-2.0-20.0-0.0","7597.375000012107","<img src=""./static/img/fractal2.png"" width=""250"" height=""250""","","BDM","","","","","","","5","","","","48","","3","71.94408990481172","","","","","","","","",""
"","html-keyboard-response","356","2196274","0.0-2.0-21.0-0.0","8216.995000024326","<p style='font-size':25px> You want <strong> 2.92 </strong> points. </p> <p> The computer offers <strong>2.60</strong> points. </p><p> You will do the following task instead to earn 1 point. </p> <img src=""./static/img/fractal3.jpg"" width=""250"" height=""250"" location='center'></img><p>[Press the space bar to continue.]</p>","32","","","","","","","","","","","","","","","","","","","","","","","",""
"","html-keyboard-response","357","2196378","0.0-2.0-23.0-0.0","null","+","null","","","","","","","","","","","","","","","","","","","","","","","",""
"","html-keyboard-response","358","2198157","0.0-2.0-23.0-1.0-0.0","1777.2500000428408","<p>In this task, you will need to follow different rules depending on the color of the numbers on screen.</p><p style=""color: red"">If the number is red, you will need to respond to its magnitude (less than or greater than 5?).</p><p style=""color: blue"">If the number is blue, you will need to respond to its parity (even or odd?).</p><p> As a reminder, the response keys are: </p><p><strong> S   F   H   K </strong></p><p>[Press the space bar to continue.]</p>","32","instructions","","","","","","","","","","","","","","","","","","","","","","",""
"","categorize-html","359","2199113","0.0-2.0-23.0-2.0-0.0","953.0500000109896","<p style=""color: red"" >8</p>","70","n-switch","true","false","1","6","0.1","70","5","false","","","","","","","","","","","","","","",""
"","html-keyboard-response","360","2199662","0.0-2.0-23.0-2.0-1.0","null","<p style=""color: black"">8</p>","null","feedback","","","","","","","","","","","","","","","","","","","","","","",""
"","html-keyboard-response","361","2199967","0.0-2.0-23.0-2.0-2.0","null"," ","null","ITI","","","","","","","","","","","","","","","","","","","","","","",""
"","categorize-html","362","2200660","0.0-2.0-23.0-2.0-3.0","690.169999958016","<p style=""color: red"" >7</p>","70","n-switch","true","false","1","5","0.1","70","5","false","","","","","","","","","","","","","","",""
"","html-keyboard-response","363","2201478","0.0-2.0-23.0-2.0-4.0","null","<p style=""color: black"">7</p>","null","feedback","","","","","","","","","","","","","","","","","","","","","","",""
"","html-keyboard-response","364","2201782","0.0-2.0-23.0-2.0-5.0","null"," ","null","ITI","","","","","","","","","","","","","","","","","","","","","","",""
"","categorize-html","365","2203296","0.0-2.0-23.0-2.0-6.0","null","<p style=""color: blue"" >9</p>","null","n-switch","false","true","2","7","0.1","75","5","false","","","","","","","","","","","","","","",""
"","html-keyboard-response","366","2203301","0.0-2.0-23.0-2.0-7.0","null","<p style=""color: black"">9</p>","null","feedback","","","","","","","","","","","","","","","","","","","","","","",""
"","html-keyboard-response","367","2203605","0.0-2.0-23.0-2.0-8.0","74.52000002376735"," ","75","ITI","","","","","","","","","","","","","","","","","","","","","","",""
"","categorize-html","368","2204335","0.0-2.0-23.0-2.0-9.0","726.5749999787658","<p style=""color: blue"" >9</p>","75","n-switch","true","false","2","7","0.1","75","5","false","","","","","","","","","","","","","","",""
"","html-keyboard-response","369","2205113","0.0-2.0-23.0-2.0-10.0","null","<p style=""color: black"">9</p>","null","feedback","","","","","","","","","","","","","","","","","","","","","","",""
"","html-keyboard-response","370","2205416","0.0-2.0-23.0-2.0-11.0","null"," ","null","ITI","","","","","","","","","","","","","","","","","","","","","","",""
"","categorize-html","371","2206683","0.0-2.0-23.0-2.0-12.0","1262.8150000236928","<p style=""color: blue"" >7</p>","75","n-switch","true","false","2","5","0.1","75","5","false","","","","","","","","","","","","","","",""
"","html-keyboard-response","372","2206926","0.0-2.0-23.0-2.0-13.0","null","<p style=""color: black"">7</p>","null","feedback","","","","","","","","","","","","","","","","","","","","","","",""
"","html-keyboard-response","373","2207229","0.0-2.0-23.0-2.0-14.0","null"," ","null","ITI","","","","","","","","","","","","","","","","","","","","","","",""
"","categorize-html","374","2207802","0.0-2.0-23.0-2.0-15.0","568.9600000623614","<p style=""color: blue"" >8</p>","72","n-switch","true","false","2","6","0.1","72","5","false","","","","","","","","","","","","","","",""
"","html-keyboard-response","375","2208737","0.0-2.0-23.0-2.0-16.0","null","<p style=""color: black"">8</p>","null","feedback","","","","","","","","","","","","","","","","","","","","","","",""
"","html-keyboard-response","376","2209039","0.0-2.0-23.0-2.0-17.0","null"," ","null","ITI","","","","","","","","","","","","","","","","","","","","","","",""
"","categorize-html","377","2210102","0.0-2.0-23.0-2.0-18.0","1059.1900000581518","<p style=""color: blue"" >2</p>","75","n-switch","false","false","2","1","0.1","72","5","false","","","","","","","","","","","","","","",""
"","html-keyboard-response","378","2210549","0.0-2.0-23.0-2.0-19.0","null","<p style=""color: black"">2</p>","null","feedback","","","","","","","","","","","","","","","","","","","","","","",""
"","html-keyboard-response","379","2210851","0.0-2.0-23.0-2.0-20.0","null"," ","null","ITI","","","","","","","","","","","","","","","","","","","","","","",""
"","categorize-html","380","2212117","0.0-2.0-23.0-2.0-21.0","1262.4650000361726","<p style=""color: blue"" >3</p>","72","n-switch","false","false","2","2","0.1","75","5","false","","","","","","","","","","","","","","",""
"","html-keyboard-response","381","2212357","0.0-2.0-23.0-2.0-22.0","null","<p style=""color: black"">3</p>","null","feedback","","","","","","","","","","","","","","","","","","","","","","",""
"","html-keyboard-response","382","2212661","0.0-2.0-23.0-2.0-23.0","null"," ","null","ITI","","","","","","","","","","","","","","","","","","","","","","",""
"","categorize-html","383","2214082","0.0-2.0-23.0-2.0-24.0","1418.2599999476224","<p style=""color: blue"" >1</p>","75","n-switch","true","false","2","0","0.1","75","5","false","","","","","","","","","","","","","","",""
"","html-keyboard-response","384","2214168","0.0-2.0-23.0-2.0-25.0","null","<p style=""color: black"">1</p>","null","feedback","","","","","","","","","","","","","","","","","","","","","","",""
"","html-keyboard-response","385","2214480","0.0-2.0-23.0-2.0-26.0","null"," ","null","ITI","","","","","","","","","","","","","","","","","","","","","","",""
"","categorize-html","386","2215316","0.0-2.0-23.0-2.0-27.0","832.1500000311062","<p style=""color: blue"" >4</p>","72","n-switch","true","false","2","3","0.1","72","5","false","","","","","","","","","","","","","","",""
"","html-keyboard-response","387","2215987","0.0-2.0-23.0-2.0-28.0","null","<p style=""color: black"">4</p>","null","feedback","","","","","","","","","","","","","","","","","","","","","","",""
"","html-keyboard-response","388","2216290","0.0-2.0-23.0-2.0-29.0","null"," ","null","ITI","","","","","","","","","","","","","","","","","","","","","","",""
"","categorize-html","389","2217182","0.0-2.0-23.0-2.0-30.0","888.7099999701604","<p style=""color: blue"" >8</p>","72","n-switch","true","false","2","6","0.1","72","5","false","","","","","","","","","","","","","","",""
"","html-keyboard-response","390","2217796","0.0-2.0-23.0-2.0-31.0","null","<p style=""color: black"">8</p>","null","feedback","","","","","","","","","","","","","","","","","","","","","","",""
"","html-keyboard-response","391","2218101","0.0-2.0-23.0-2.0-32.0","null"," ","null","ITI","","","","","","","","","","","","","","","","","","","","","","",""
"","categorize-html","392","2219131","0.0-2.0-23.0-2.0-33.0","1025.7449999917299","<p style=""color: blue"" >2</p>","72","n-switch","true","false","2","1","0.1","72","5","false","","","","","","","","","","","","","","",""
"","html-keyboard-response","393","2219607","0.0-2.0-23.0-2.0-34.0","null","<p style=""color: black"">2</p>","null","feedback","","","","","","","","","","","","","","","","","","","","","","",""
"","html-keyboard-response","394","2219913","0.0-2.0-23.0-2.0-35.0","null"," ","null","ITI","","","","","","","","","","","","","","","","","","","","","","",""
"","categorize-html","395","2220396","0.0-2.0-23.0-2.0-36.0","479.84000004362315","<p style=""color: blue"" >7</p>","75","n-switch","true","false","2","5","0.1","75","5","false","","","","","","","","","","","","","","",""
"","html-keyboard-response","396","2221420","0.0-2.0-23.0-2.0-37.0","null","<p style=""color: black"">7</p>","null","feedback","","","","","","","","","","","","","","","","","","","","","","",""
"","html-keyboard-response","397","2221726","0.0-2.0-23.0-2.0-38.0","null"," ","null","ITI","","","","","","","","","","","","","","","","","","","","","","",""
"","categorize-html","398","2222596","0.0-2.0-23.0-2.0-39.0","865.6450000125915","<p style=""color: blue"" >4</p>","72","n-switch","true","false","2","3","0.1","72","5","false","","","","","","","","","","","","","","",""
"","html-keyboard-response","399","2223232","0.0-2.0-23.0-2.0-40.0","null","<p style=""color: black"">4</p>","null","feedback","","","","","","","","","","","","","","","","","","","","","","",""
"","html-keyboard-response","400","2223543","0.0-2.0-23.0-2.0-41.0","135.9950000187382"," ","83","ITI","","","","","","","","","","","","","","","","","","","","","","",""
"","categorize-html","401","2224076","0.0-2.0-23.0-2.0-42.0","529.4449999928474","<p style=""color: blue"" >4</p>","72","n-switch","true","false","2","3","0.1","72","5","false","","","","","","","","","","","","","","",""
"","html-keyboard-response","402","2225051","0.0-2.0-23.0-2.0-43.0","null","<p style=""color: black"">4</p>","null","feedback","","","","","","","","","","","","","","","","","","","","","","",""
"","html-keyboard-response","403","2225356","0.0-2.0-23.0-2.0-44.0","null"," ","null","ITI","","","","","","","","","","","","","","","","","","","","","","",""
"","html-keyboard-response","404","2226323","0.0-2.0-23.0-3.0","961.8699999991804","<p>Great job! You earned 1 point(s) from this task.</p> </p><p>Press the space bar to continue. </p>","32","debrief","","","","","","","","","","","","","","","","","","","","","","",""
"","html-slider-response","405","2238907","0.0-3.0-0.0-0.0","12581.279999925755","<img src=""./static/img/fractal2.png"" width=""250"" height=""250""","","BDM","","","","","","","6","","","","40","","3","40.424554745130116","","","","","","","","",""
"","html-keyboard-response","406","2245725","0.0-3.0-1.0-0.0","6815.73999999091","<p style='font-size':25px> You want <strong> 2.60 </strong> points. </p> <p> The computer offers <strong>2.00</strong> points. </p><p> You will do the following task instead to earn 1 point. </p> <img src=""./static/img/fractal3.jpg"" width=""250"" height=""250"" location='center'></img><p>[Press the space bar to continue.]</p>","32","","","","","","","","","","","","","","","","","","","","","","","",""
"","html-keyboard-response","407","2245831","0.0-3.0-3.0-0.0","null","+","null","","","","","","","","","","","","","","","","","","","","","","","",""
"","html-keyboard-response","408","2247734","0.0-3.0-3.0-1.0-0.0","1900.9899999946356","<p>In this task, you will need to follow different rules depending on the color of the numbers on screen.</p><p style=""color: red"">If the number is red, you will need to respond to its magnitude (less than or greater than 5?).</p><p style=""color: blue"">If the number is blue, you will need to respond to its parity (even or odd?).</p><p> As a reminder, the response keys are: </p><p><strong> S   F   H   K </strong></p><p>[Press the space bar to continue.]</p>","32","instructions","","","","","","","","","","","","","","","","","","","","","","",""
"","categorize-html","409","2249241","0.0-3.0-3.0-2.0-0.0","null","<p style=""color: blue"" >4</p>","null","n-switch","false","false","2","3","0.1","72","6","false","","","","","","","","","","","","","","",""
"","html-keyboard-response","410","2249249","0.0-3.0-3.0-2.0-1.0","null","<p style=""color: black"">4</p>","null","feedback","","","","","","","","","","","","","","","","","","","","","","",""
"","html-keyboard-response","411","2249552","0.0-3.0-3.0-2.0-2.0","null"," ","null","ITI","","","","","","","","","","","","","","","","","","","","","","",""
"","categorize-html","412","2251064","0.0-3.0-3.0-2.0-3.0","null","<p style=""color: red"" >8</p>","null","n-switch","false","true","1","6","0.1","70","6","false","","","","","","","","","","","","","","",""
"","html-keyboard-response","413","2251070","0.0-3.0-3.0-2.0-4.0","null","<p style=""color: black"">8</p>","null","feedback","","","","","","","","","","","","","","","","","","","","","","",""
"","html-keyboard-response","414","2251372","0.0-3.0-3.0-2.0-5.0","null"," ","null","ITI","","","","","","","","","","","","","","","","","","","","","","",""
"","categorize-html","415","2252522","0.0-3.0-3.0-2.0-6.0","1145.5100000603124","<p style=""color: red"" >6</p>","70","n-switch","true","false","1","4","0.1","70","6","false","","","","","","","","","","","","","","",""
"","html-keyboard-response","416","2252881","0.0-3.0-3.0-2.0-7.0","null","<p style=""color: black"">6</p>","null","feedback","","","","","","","","","","","","","","","","","","","","","","",""
"","html-keyboard-response","417","2253187","0.0-3.0-3.0-2.0-8.0","null"," ","null","ITI","","","","","","","","","","","","","","","","","","","","","","",""
"","categorize-html","418","2254345","0.0-3.0-3.0-2.0-9.0","1154.7049999935552","<p style=""color: red"" >4</p>","83","n-switch","true","false","1","3","0.1","83","6","false","","","","","","","","","","","","","","",""
"","html-keyboard-response","419","2254694","0.0-3.0-3.0-2.0-10.0","null","<p style=""color: black"">4</p>","null","feedback","","","","","","","","","","","","","","","","","","","","","","",""
"","html-keyboard-response","420","2255002","0.0-3.0-3.0-2.0-11.0","null"," ","null","ITI","","","","","","","","","","","","","","","","","","","","","","",""
"","categorize-html","421","2255617","0.0-3.0-3.0-2.0-12.0","612.275000079535","<p style=""color: red"" >6</p>","70","n-switch","true","false","1","4","0.1","70","6","false","","","","","","","","","","","","","","",""
"","html-keyboard-response","422","2256514","0.0-3.0-3.0-2.0-13.0","null","<p style=""color: black"">6</p>","null","feedback","","","","","","","","","","","","","","","","","","","","","","",""
"","html-keyboard-response","423","2256820","0.0-3.0-3.0-2.0-14.0","null"," ","null","ITI","","","","","","","","","","","","","","","","","","","","","","",""
"","categorize-html","424","2257697","0.0-3.0-3.0-2.0-15.0","873.9350000396371","<p style=""color: red"" >4</p>","83","n-switch","true","false","1","3","0.1","83","6","false","","","","","","","","","","","","","","",""
"","html-keyboard-response","425","2258327","0.0-3.0-3.0-2.0-16.0","null","<p style=""color: black"">4</p>","null","feedback","","","","","","","","","","","","","","","","","","","","","","",""
"","html-keyboard-response","426","2258630","0.0-3.0-3.0-2.0-17.0","null"," ","null","ITI","","","","","","","","","","","","","","","","","","","","","","",""
"","categorize-html","427","2259937","0.0-3.0-3.0-2.0-18.0","1302.9249999672174","<p style=""color: blue"" >7</p>","75","n-switch","true","true","2","5","0.1","75","6","false","","","","","","","","","","","","","","",""
