"success","trial_type","trial_index","time_elapsed","internal_node_id","rt","stimulus","key_press","task","correct","detect","correct_key","tasknum","practice_accuracy","practice","nback","n","number_practice_combines","response","BDMquizgrade","slider_start","stimnum","TOT","overall","performance_by_block","points_list","value_list","offer_list"
"true","fullscreen","0","5012","0.0-0.0","","","","","","","","","","","","","","","","","","","","","","",""
"","html-keyboard-response","1","5984","0.0-1.0-0.0-0.0","967.0049999840558","<p>In this experiment, you'll complete up to 12 short rounds of two tasks.</p><p>If you are 80% correct or better during one round of a task, then you pass that round and earn bonus points for it. If you are less than 80% correct, you will not earn any points for that round.</p><p>You can earn 1 to 5 points each round.</p><p>Keep in mind that you should be about 80% accurate for up to 12 rounds.</p><p>At the end of the experiment, the points you earned will be added up and turned into a bonus payment. $$ The more points you earn, the more money you will be paid. $$</p><p>If we can tell that you are not paying attention, then this experiment will end early and you will earn a smaller payment. $$</p><p>[Press space to practice the first task.]</p>","32","instructions","","","","","","","","","","","","","","","","","","",""
"","html-keyboard-response","2","6897","0.0-1.0-1.0-0.0-0.0","910.4450000450015","<img src=""./static/img/fractal2.png"" width=""250"" height=""250""","32","","","","","","","","","","","","","","","","","","","",""
"","html-keyboard-response","3","14835","0.0-1.0-1.0-1.0-0.0","7936.109999893233","<p>In this task, you will need to press <strong>K</strong> every time you see the target letter <strong>T</strong>. </p><p>You must respond while the letter is on screen or your answer will not count.</p><p> Pay attention! If you are not at least 80% accurate, you will not earn points for completing this round.</p> <p>Press space to begin.</p>","32","instructions","","","","","","","","","","","","","","","","","","",""
"","categorize-html","4","16341","0.0-1.0-1.0-2.0-0.0","null","<p>E</p>","null","detection","false","false","90","-1","","","","","","","","","","","","","","",""
"","html-keyboard-response","5","17109","0.0-1.0-1.0-2.0-1.0","null"," ","null","feedback","","","","","","","","","","","","","","","","","","",""
"","categorize-html","6","18622","0.0-1.0-1.0-2.0-2.0","null","<p>X</p>","null","detection","false","false","90","-1","","","","","","","","","","","","","","",""
"","html-keyboard-response","7","19381","0.0-1.0-1.0-2.0-3.0","null"," ","null","feedback","","","","","","","","","","","","","","","","","","",""
"","categorize-html","8","20904","0.0-1.0-1.0-2.0-4.0","null","<p>T</p>","null","detection","false","true","75","-1","","","","","","","","","","","","","","",""
"","html-keyboard-response","9","21668","0.0-1.0-1.0-2.0-5.0","null","Press <strong>K</strong> when you see a T.","null","feedback","","","","","","","","","","","","","","","","","","",""
"","categorize-html","10","23186","0.0-1.0-1.0-2.0-6.0","null","<p>X</p>","null","detection","false","false","90","-1","","","","","","","","","","","","","","",""
"","html-keyboard-response","11","23940","0.0-1.0-1.0-2.0-7.0","null"," ","null","feedback","","","","","","","","","","","","","","","","","","",""
"","categorize-html","12","25451","0.0-1.0-1.0-2.0-8.0","null","<p>X</p>","null","detection","false","false","90","-1","","","","","","","","","","","","","","",""
"","html-keyboard-response","13","26211","0.0-1.0-1.0-2.0-9.0","null"," ","null","feedback","","","","","","","","","","","","","","","","","","",""
"","categorize-html","14","27732","0.0-1.0-1.0-2.0-10.0","null","<p>E</p>","null","detection","false","false","90","-1","","","","","","","","","","","","","","",""
"","html-keyboard-response","15","28487","0.0-1.0-1.0-2.0-11.0","null"," ","null","feedback","","","","","","","","","","","","","","","","","","",""
"","categorize-html","16","29996","0.0-1.0-1.0-2.0-12.0","null","<p>X</p>","null","detection","false","false","90","-1","","","","","","","","","","","","","","",""
"","html-keyboard-response","17","30763","0.0-1.0-1.0-2.0-13.0","null"," ","null","feedback","","","","","","","","","","","","","","","","","","",""
"","categorize-html","18","32271","0.0-1.0-1.0-2.0-14.0","null","<p>X</p>","null","detection","false","false","90","-1","","","","","","","","","","","","","","",""
"","html-keyboard-response","19","33029","0.0-1.0-1.0-2.0-15.0","null"," ","null","feedback","","","","","","","","","","","","","","","","","","",""
"","categorize-html","20","34537","0.0-1.0-1.0-2.0-16.0","null","<p>T</p>","null","detection","false","true","75","-1","","","","","","","","","","","","","","",""
"","html-keyboard-response","21","35297","0.0-1.0-1.0-2.0-17.0","null","Press <strong>K</strong> when you see a T.","null","feedback","","","","","","","","","","","","","","","","","","",""
"","categorize-html","22","36812","0.0-1.0-1.0-2.0-18.0","null","<p>R</p>","null","detection","false","false","90","-1","","","","","","","","","","","","","","",""
"","html-keyboard-response","23","37575","0.0-1.0-1.0-2.0-19.0","null"," ","null","feedback","","","","","","","","","","","","","","","","","","",""
"","html-keyboard-response","24","52574","0.0-1.0-1.0-3.0","14993.729999987409","<p>Your accuracy was <strong>50.00%</strong>.</p><p>You will need to be at least 80% accurate to earn points in the real experiment.</p><p>In the real experiment, you will not receive the same feedback as during practice.</p><p>Press the space bar to continue. </p>","32","debrief","","","","","50.00","true","","","","","","","","","","","","",""
"","html-keyboard-response","25","53785","0.0-1.0-2.0-0.0-0.0","1208.8699999731034","<img src=""./static/img/fractal3.jpg"" width=""250"" height=""250""","32","","","","","","","","","","","","","","","","","","","",""
"","html-keyboard-response","26","54951","0.0-1.0-2.0-1.0-0.0","1163.4349999949336","<p>In this task, you will need to press <strong>H</strong> every time you see the same letter you saw <strong>1</strong> letters ago.</p> <p>If the letter on screen was not the one you saw <strong>1</strong> letters ago, do not press anything.</p><p>Pay attention! If you are not at least 80% accurate by the last practice game, you will not progress to the real experiment.</p><img src=./static/img/1-back.png><p>Press space to begin.</p>","32","","","","","","","","","","","","","","","","","","","",""
"","categorize-html","27","55065","0.0-1.0-2.0-2.0-0.0","112.02000011689961","<p>R</p>","32","n-back","false","","90","-1","","true","false","1","","","","","","","","","","",""
"","html-keyboard-response","28","55823","0.0-1.0-2.0-2.0-1.0","null","Please press H.","null","feedback","","","","","","true","","","","","","","","","","","","",""
"","categorize-html","29","57327","0.0-1.0-2.0-2.0-2.0","null","<p>E</p>","null","n-back","false","","90","-1","","true","false","1","","","","","","","","","","",""
"","html-keyboard-response","30","58086","0.0-1.0-2.0-2.0-3.0","null"," ","null","feedback","","","","","","true","","","","","","","","","","","","",""
"","categorize-html","31","59595","0.0-1.0-2.0-2.0-4.0","null","<p>X</p>","null","n-back","false","","90","-1","","true","false","1","","","","","","","","","","",""
"","html-keyboard-response","32","60360","0.0-1.0-2.0-2.0-5.0","null"," ","null","feedback","","","","","","true","","","","","","","","","","","","",""
"","categorize-html","33","61866","0.0-1.0-2.0-2.0-6.0","null","<p>E</p>","null","n-back","false","","90","-1","","true","false","1","","","","","","","","","","",""
"","html-keyboard-response","34","62623","0.0-1.0-2.0-2.0-7.0","null"," ","null","feedback","","","","","","true","","","","","","","","","","","","",""
"","categorize-html","35","64141","0.0-1.0-2.0-2.0-8.0","null","<p>E</p>","null","n-back","false","","72","-1","","true","true","1","","","","","","","","","","",""
"","html-keyboard-response","36","64893","0.0-1.0-2.0-2.0-9.0","null","Press <strong>H</strong> when you see a match.","null","feedback","","","","","","true","","","","","","","","","","","","",""
"","categorize-html","37","66400","0.0-1.0-2.0-2.0-10.0","null","<p>E</p>","null","n-back","false","","72","-1","","true","true","1","","","","","","","","","","",""
"","html-keyboard-response","38","67154","0.0-1.0-2.0-2.0-11.0","null","Press <strong>H</strong> when you see a match.","null","feedback","","","","","","true","","","","","","","","","","","","",""
"","categorize-html","39","68672","0.0-1.0-2.0-2.0-12.0","null","<p>R</p>","null","n-back","false","","90","-1","","true","false","1","","","","","","","","","","",""
"","html-keyboard-response","40","69425","0.0-1.0-2.0-2.0-13.0","null"," ","null","feedback","","","","","","true","","","","","","","","","","","","",""
"","categorize-html","41","70940","0.0-1.0-2.0-2.0-14.0","null","<p>R</p>","null","n-back","false","","72","-1","","true","true","1","","","","","","","","","","",""
"","html-keyboard-response","42","71701","0.0-1.0-2.0-2.0-15.0","null","Press <strong>H</strong> when you see a match.","null","feedback","","","","","","true","","","","","","","","","","","","",""
"","categorize-html","43","73219","0.0-1.0-2.0-2.0-16.0","null","<p>R</p>","null","n-back","false","","72","-1","","true","true","1","","","","","","","","","","",""
"","html-keyboard-response","44","73981","0.0-1.0-2.0-2.0-17.0","null","Press <strong>H</strong> when you see a match.","null","feedback","","","","","","true","","","","","","","","","","","","",""
"","categorize-html","45","75488","0.0-1.0-2.0-2.0-18.0","null","<p>X</p>","null","n-back","false","","90","-1","","true","false","1","","","","","","","","","","",""
"","html-keyboard-response","46","76248","0.0-1.0-2.0-2.0-19.0","null"," ","null","feedback","","","","","","true","","","","","","","","","","","","",""
"","html-keyboard-response","47","89503","0.0-1.0-2.0-3.0","13252.480000024661","<p>Your accuracy was <strong>50.00%</strong>.</p><p>You will need to be at least 80% accurate during the study to earn points.</p><p>Please remember that you will not receive feedback like this during the real experiment.</p><p>Press the space bar to continue.</p>","32","","","","","","50.00","true","","","","","","","","","","","","",""
"","html-keyboard-response","48","94286","0.0-1.0-3.0-0.0-0.0","4780.274999793619","<img src=""./static/img/fractal3.jpg"" width=""250"" height=""250""","32","","","","","","","","","","","","","","","","","","","",""
"","html-keyboard-response","49","96877","0.0-1.0-3.0-1.0-0.0","2589.2300000414252","<p>In this task, you will need to press <strong>H</strong> every time you see the same letter you saw <strong>2</strong> letters ago.</p> <p>If the letter on screen was not the one you saw <strong>2</strong> letters ago, do not press anything.</p><p>Pay attention! If you are not at least 80% accurate by the last practice game, you will not progress to the real experiment.</p><img src=./static/img/2-back.png><p>Press space to begin.</p>","32","","","","","","","","","","","","","","","","","","","",""
"","categorize-html","50","98391","0.0-1.0-3.0-2.0-0.0","null","<p>E</p>","null","n-back","false","","90","-1","","true","false","2","","","","","","","","","","",""
"","html-keyboard-response","51","99147","0.0-1.0-3.0-2.0-1.0","null"," ","null","feedback","","","","","","true","","","","","","","","","","","","",""
"","categorize-html","52","100657","0.0-1.0-3.0-2.0-2.0","null","<p>R</p>","null","n-back","false","","90","-1","","true","false","2","","","","","","","","","","",""
"","html-keyboard-response","53","101411","0.0-1.0-3.0-2.0-3.0","null"," ","null","feedback","","","","","","true","","","","","","","","","","","","",""
"","categorize-html","54","102920","0.0-1.0-3.0-2.0-4.0","null","<p>E</p>","null","n-back","false","","72","-1","","true","true","2","","","","","","","","","","",""
"","html-keyboard-response","55","103680","0.0-1.0-3.0-2.0-5.0","null","Press <strong>H</strong> when you see a match.","null","feedback","","","","","","true","","","","","","","","","","","","",""
"","categorize-html","56","105202","0.0-1.0-3.0-2.0-6.0","null","<p>X</p>","null","n-back","false","","90","-1","","true","false","2","","","","","","","","","","",""
"","html-keyboard-response","57","105956","0.0-1.0-3.0-2.0-7.0","null"," ","null","feedback","","","","","","true","","","","","","","","","","","","",""
"","categorize-html","58","107477","0.0-1.0-3.0-2.0-8.0","null","<p>E</p>","null","n-back","false","","72","-1","","true","true","2","","","","","","","","","","",""
"","html-keyboard-response","59","108240","0.0-1.0-3.0-2.0-9.0","null","Press <strong>H</strong> when you see a match.","null","feedback","","","","","","true","","","","","","","","","","","","",""
"","categorize-html","60","109760","0.0-1.0-3.0-2.0-10.0","null","<p>R</p>","null","n-back","false","","90","-1","","true","false","2","","","","","","","","","","",""
"","html-keyboard-response","61","110521","0.0-1.0-3.0-2.0-11.0","null"," ","null","feedback","","","","","","true","","","","","","","","","","","","",""
"","categorize-html","62","112045","0.0-1.0-3.0-2.0-12.0","null","<p>R</p>","null","n-back","false","","90","-1","","true","false","2","","","","","","","","","","",""
"","html-keyboard-response","63","112804","0.0-1.0-3.0-2.0-13.0","null"," ","null","feedback","","","","","","true","","","","","","","","","","","","",""
"","categorize-html","64","114324","0.0-1.0-3.0-2.0-14.0","null","<p>E</p>","null","n-back","false","","90","-1","","true","false","2","","","","","","","","","","",""
"","html-keyboard-response","65","115085","0.0-1.0-3.0-2.0-15.0","null"," ","null","feedback","","","","","","true","","","","","","","","","","","","",""
"","categorize-html","66","116606","0.0-1.0-3.0-2.0-16.0","null","<p>E</p>","null","n-back","false","","90","-1","","true","false","2","","","","","","","","","","",""
"","html-keyboard-response","67","117371","0.0-1.0-3.0-2.0-17.0","null"," ","null","feedback","","","","","","true","","","","","","","","","","","","",""
"","categorize-html","68","118878","0.0-1.0-3.0-2.0-18.0","null","<p>R</p>","null","n-back","false","","90","-1","","true","false","2","","","","","","","","","","",""
"","html-keyboard-response","69","119630","0.0-1.0-3.0-2.0-19.0","null"," ","null","feedback","","","","","","true","","","","","","","","","","","","",""
"","html-keyboard-response","70","122602","0.0-1.0-3.0-3.0","2969.2700000014156","<p>Your accuracy was <strong>80.00%</strong>.</p><p>You will need to be at least 80% accurate during the study to earn points.</p><p>Please remember that you will not receive feedback like this during the real experiment.</p><p>Press the space bar to continue.</p>","32","","","","","","80.00","true","","","","","","","","","","","","",""
"","html-keyboard-response","71","124133","0.0-1.0-4.0-0.0-0.0","1529.2950000148267","<img src=""./static/img/fractal3.jpg"" width=""250"" height=""250""","32","","","","","","","","","","","","","","","","","","","",""
"","html-keyboard-response","72","130631","0.0-1.0-4.0-1.0-0.0","6497.415000107139","<p>In this task, you will need to press <strong>H</strong> every time you see the same letter you saw <strong>3</strong> letters ago.</p> <p>If the letter on screen was not the one you saw <strong>3</strong> letters ago, do not press anything.</p><p>Pay attention! If you are not at least 80% accurate by the last practice game, you will not progress to the real experiment.</p><img src=./static/img/3-back.png><p>Press space to begin.</p>","32","","","","","","","","","","","","","","","","","","","",""
"","categorize-html","73","132149","0.0-1.0-4.0-2.0-0.0","null","<p>R</p>","null","n-back","false","","90","-1","","true","false","3","","","","","","","","","","",""
"","html-keyboard-response","74","132904","0.0-1.0-4.0-2.0-1.0","null"," ","null","feedback","","","","","","true","","","","","","","","","","","","",""
"","categorize-html","75","134415","0.0-1.0-4.0-2.0-2.0","null","<p>X</p>","null","n-back","false","","90","-1","","true","false","3","","","","","","","","","","",""
"","html-keyboard-response","76","135168","0.0-1.0-4.0-2.0-3.0","null"," ","null","feedback","","","","","","true","","","","","","","","","","","","",""
"","categorize-html","77","136687","0.0-1.0-4.0-2.0-4.0","null","<p>X</p>","null","n-back","false","","90","-1","","true","false","3","","","","","","","","","","",""
"","html-keyboard-response","78","137440","0.0-1.0-4.0-2.0-5.0","null"," ","null","feedback","","","","","","true","","","","","","","","","","","","",""
"","categorize-html","79","137791","0.0-1.0-4.0-2.0-6.0","346.99500002898276","<p>R</p>","72","n-back","true","","72","-1","","true","true","3","","","","","","","","","","",""
"","html-keyboard-response","80","138546","0.0-1.0-4.0-2.0-7.0","null","Correct!","null","feedback","","","","","","true","","","","","","","","","","","","",""
"","categorize-html","81","140055","0.0-1.0-4.0-2.0-8.0","null","<p>R</p>","null","n-back","false","","90","-1","","true","false","3","","","","","","","","","","",""
"","html-keyboard-response","82","140811","0.0-1.0-4.0-2.0-9.0","null"," ","null","feedback","","","","","","true","","","","","","","","","","","","",""
"","categorize-html","83","142321","0.0-1.0-4.0-2.0-10.0","null","<p>E</p>","null","n-back","false","","90","-1","","true","false","3","","","","","","","","","","",""
"","html-keyboard-response","84","143077","0.0-1.0-4.0-2.0-11.0","null"," ","null","feedback","","","","","","true","","","","","","","","","","","","",""
"","categorize-html","85","144012","0.0-1.0-4.0-2.0-12.0","931.3750001601875","<p>R</p>","72","n-back","true","","72","-1","","true","true","3","","","","","","","","","","",""
"","html-keyboard-response","86","144769","0.0-1.0-4.0-2.0-13.0","null","Correct!","null","feedback","","","","","","true","","","","","","","","","","","","",""
"","categorize-html","87","146273","0.0-1.0-4.0-2.0-14.0","null","<p>R</p>","null","n-back","false","","72","-1","","true","true","3","","","","","","","","","","",""
"","html-keyboard-response","88","147026","0.0-1.0-4.0-2.0-15.0","null","Press <strong>H</strong> when you see a match.","null","feedback","","","","","","true","","","","","","","","","","","","",""
"","categorize-html","89","147641","0.0-1.0-4.0-2.0-16.0","611.2799998372793","<p>X</p>","72","n-back","false","","90","-1","","true","false","3","","","","","","","","","","",""
"","html-keyboard-response","90","148395","0.0-1.0-4.0-2.0-17.0","null","Not a match! Press nothing.","null","feedback","","","","","","true","","","","","","","","","","","","",""
"","categorize-html","91","149168","0.0-1.0-4.0-2.0-18.0","769.6750001050532","<p>R</p>","72","n-back","true","","72","-1","","true","true","3","","","","","","","","","","",""
"","html-keyboard-response","92","149925","0.0-1.0-4.0-2.0-19.0","null","Correct!","null","feedback","","","","","","true","","","","","","","","","","","","",""
"","html-keyboard-response","93","151146","0.0-1.0-4.0-3.0","1219.9099999852479","<p>Your accuracy was <strong>80.00%</strong>.</p><p>You will need to be at least 80% accurate during the study to earn points.</p><p>Please remember that you will not receive feedback like this during the real experiment.</p><p>Press the space bar to continue.</p>","32","","","","","","80.00","true","","","","","","","","","","","","",""
"","html-keyboard-response","94","152849","0.0-1.0-5.0-0.0","1700.8650000207126","<p>Good job! You have reached 80% accuracy on this practice task. We will now move on.</p><p>[Press the space bar to continue.]</p>","32","instructions","","","","","100.00","","","","","","","","","","","","","",""
"","html-keyboard-response","95","154332","0.0-1.0-7.0-0.0-0.0-0.0","1480.9100001584738","<img src=""./static/img/fractal1.jpg"" width=""250"" height=""250""","32","","","","","","","","","","","","","","","","","","","",""
"","html-keyboard-response","96","210469","0.0-1.0-7.0-0.0-1.0-0.0","56135.30500000343","<p>This task is a combination of the two tasks you just practiced.</p><p>In this task, you will need to press <strong>H</strong> every time you see the same letter you saw 3 letters ago (we call this a ""3-back match"").</p> <p>If the letter on screen was not the one you saw 3 trials ago (not a ""3-back match""), do not press anything.</p><p>If you see a T, press <strong>K</strong> as fast as you can.</p><p>T's count in the sequence of letters for a 3-back match.</p><p>A T might be a 3-back match, but ignore that. Just press K when you see a T.</p><p>You will now be given six chances to practice this task until you are at least 80% accurate on it.</p><p>If you don't reach 80% accuracy in six attempts, you will not move on to the real experiment.</p><p>Press space to begin.</p>","32","","","","","","","","","","","","","","","","","","","",""
"","categorize-html","97","211979","0.0-1.0-7.0-0.0-2.0-0.0","null","<p>T</p>","null","combine","false","true","90","-1","","true","0","3","","","","","","","","","","",""
"","html-keyboard-response","98","212732","0.0-1.0-7.0-0.0-2.0-1.0","null"," ","null","feedback","","","","","","true","","","","","","","","","","","","",""
"","categorize-html","99","214253","0.0-1.0-7.0-0.0-2.0-2.0","null","<p>R</p>","null","combine","false","false","90","-1","","true","0","3","","","","","","","","","","",""
"","html-keyboard-response","100","215007","0.0-1.0-7.0-0.0-2.0-3.0","null"," ","null","feedback","","","","","","true","","","","","","","","","","","","",""
"","categorize-html","101","216521","0.0-1.0-7.0-0.0-2.0-4.0","null","<p>X</p>","null","combine","false","false","90","-1","","true","0","3","","","","","","","","","","",""
"","html-keyboard-response","102","217288","0.0-1.0-7.0-0.0-2.0-5.0","null"," ","null","feedback","","","","","","true","","","","","","","","","","","","",""
"","categorize-html","103","218805","0.0-1.0-7.0-0.0-2.0-6.0","null","<p>R</p>","null","combine","false","false","90","-1","","true","0","3","","","","","","","","","","",""
"","html-keyboard-response","104","219561","0.0-1.0-7.0-0.0-2.0-7.0","null"," ","null","feedback","","","","","","true","","","","","","","","","","","","",""
"","categorize-html","105","221081","0.0-1.0-7.0-0.0-2.0-8.0","null","<p>E</p>","null","combine","false","false","90","-1","","true","0","3","","","","","","","","","","",""
"","html-keyboard-response","106","221837","0.0-1.0-7.0-0.0-2.0-9.0","null"," ","null","feedback","","","","","","true","","","","","","","","","","","","",""
"","categorize-html","107","222317","0.0-1.0-7.0-0.0-2.0-10.0","473.60000014305115","<p>T</p>","72","combine","false","true","75","-1","","true","0","3","","","","","","","","","","",""
"","html-keyboard-response","108","223084","0.0-1.0-7.0-0.0-2.0-11.0","null","Press <strong>K</strong> when you see a T.","null","feedback","","","","","","true","","","","","","","","","","","","",""
"","categorize-html","109","224600","0.0-1.0-7.0-0.0-2.0-12.0","null","<p>X</p>","null","combine","false","false","90","-1","","true","0","3","","","","","","","","","","",""
"","html-keyboard-response","110","225356","0.0-1.0-7.0-0.0-2.0-13.0","null"," ","null","feedback","","","","","","true","","","","","","","","","","","","",""
"","categorize-html","111","226864","0.0-1.0-7.0-0.0-2.0-14.0","null","<p>E</p>","null","combine","false","false","72","-1","","true","1","3","","","","","","","","","","",""
"","html-keyboard-response","112","227628","0.0-1.0-7.0-0.0-2.0-15.0","null","Press <strong>H</strong> when you see a match.","null","feedback","","","","","","true","","","","","","","","","","","","",""
"","categorize-html","113","229146","0.0-1.0-7.0-0.0-2.0-16.0","null","<p>X</p>","null","combine","false","false","90","-1","","true","0","3","","","","","","","","","","",""
"","html-keyboard-response","114","229905","0.0-1.0-7.0-0.0-2.0-17.0","null"," ","null","feedback","","","","","","true","","","","","","","","","","","","",""
"","categorize-html","115","230552","0.0-1.0-7.0-0.0-2.0-18.0","642.9649998899549","<p>X</p>","72","combine","true","false","72","-1","","true","1","3","","","","","","","","","","",""
"","html-keyboard-response","116","231307","0.0-1.0-7.0-0.0-2.0-19.0","null","Correct!","null","feedback","","","","","","true","","","","","","","","","","","","",""
"","categorize-html","117","232297","0.0-1.0-7.0-0.0-2.0-20.0","987.385000102222","<p>E</p>","72","combine","true","false","72","-1","","true","1","3","","","","","","","","","","",""
"","html-keyboard-response","118","233051","0.0-1.0-7.0-0.0-2.0-21.0","null","Correct!","null","feedback","","","","","","true","","","","","","","","","","","","",""
"","categorize-html","119","233885","0.0-1.0-7.0-0.0-2.0-22.0","831.3099998049438","<p>X</p>","72","combine","true","false","72","-1","","true","1","3","","","","","","","","","","",""
"","html-keyboard-response","120","234649","0.0-1.0-7.0-0.0-2.0-23.0","null","Correct!","null","feedback","","","","","","true","","","","","","","","","","","","",""
"","categorize-html","121","235272","0.0-1.0-7.0-0.0-2.0-24.0","619.9650000780821","<p>E</p>","72","combine","false","false","90","-1","","true","0","3","","","","","","","","","","",""
"","html-keyboard-response","122","236032","0.0-1.0-7.0-0.0-2.0-25.0","null","Not a match! Press nothing.","null","feedback","","","","","","true","","","","","","","","","","","","",""
"","categorize-html","123","236758","0.0-1.0-7.0-0.0-2.0-26.0","723.5400001518428","<p>X</p>","72","combine","false","false","90","-1","","true","0","3","","","","","","","","","","",""
"","html-keyboard-response","124","237520","0.0-1.0-7.0-0.0-2.0-27.0","null","Not a match! Press nothing.","null","feedback","","","","","","true","","","","","","","","","","","","",""
"","categorize-html","125","239030","0.0-1.0-7.0-0.0-2.0-28.0","null","<p>R</p>","null","combine","false","false","90","-1","","true","0","3","","","","","","","","","","",""
"","html-keyboard-response","126","239796","0.0-1.0-7.0-0.0-2.0-29.0","null"," ","null","feedback","","","","","","true","","","","","","","","","","","","",""
"","html-keyboard-response","127","241471","0.0-1.0-7.0-1.0-0.0","1673.4949999954551","<p> You were 60.00% accurate.</p><p>You are not at 80% accuracy yet.</p><p>Let's try this task again.</p><p>[Press the space bar to continue.]</p>","32","","","","","","60.00","","","","","","","","","","","","","",""
"","html-keyboard-response","128","250507","0.0-1.0-7.0-2.0-0.0","9033.625000156462","<p>You will get 5 more tries to get to 80% accuracy on this task.</p><p>[Press space bar to try again.]</p>","32","","","","","","","","","","1","","","","","","","","","",""
"","html-keyboard-response","129","251720","0.0-1.0-7.0-3.0-0.0-0.0","1210.9349998645484","<img src=""./static/img/fractal1.jpg"" width=""250"" height=""250""","32","","","","","","","","","","","","","","","","","","","",""
"","html-keyboard-response","130","253775","0.0-1.0-7.0-3.0-1.0-0.0","2052.635000087321","<p>This task is a combination of the two tasks you just practiced.</p><p>In this task, you will need to press <strong>H</strong> every time you see the same letter you saw 3 letters ago (we call this a ""3-back match"").</p> <p>If the letter on screen was not the one you saw 3 trials ago (not a ""3-back match""), do not press anything.</p><p>If you see a T, press <strong>K</strong> as fast as you can.</p><p>T's count in the sequence of letters for a 3-back match.</p><p>A T might be a 3-back match, but ignore that. Just press K when you see a T.</p><p>You will now be given six chances to practice this task until you are at least 80% accurate on it.</p><p>If you don't reach 80% accuracy in six attempts, you will not move on to the real experiment.</p><p>Press space to begin.</p>","32","","","","","","","","","","","","","","","","","","","",""
"","categorize-html","131","254377","0.0-1.0-7.0-3.0-2.0-0.0","599.055000115186","<p>T</p>","75","combine","false","true","90","-1","","true","0","3","","","","","","","","","","",""
"","html-keyboard-response","132","255132","0.0-1.0-7.0-3.0-2.0-1.0","null","Press <strong>K</strong> when you see a T.","null","feedback","","","","","","true","","","","","","","","","","","","",""
"","categorize-html","133","255643","0.0-1.0-7.0-3.0-2.0-2.0","508.05000006221235","<p>T</p>","75","combine","false","true","90","-1","","true","0","3","","","","","","","","","","",""
"","html-keyboard-response","134","256401","0.0-1.0-7.0-3.0-2.0-3.0","null","Press <strong>K</strong> when you see a T.","null","feedback","","","","","","true","","","","","","","","","","","","",""
"","categorize-html","135","257907","0.0-1.0-7.0-3.0-2.0-4.0","null","<p>E</p>","null","combine","false","false","90","-1","","true","0","3","","","","","","","","","","",""
"","html-keyboard-response","136","258671","0.0-1.0-7.0-3.0-2.0-5.0","null"," ","null","feedback","","","","","","true","","","","","","","","","","","","",""
"","categorize-html","137","260188","0.0-1.0-7.0-3.0-2.0-6.0","null","<p>X</p>","null","combine","false","false","90","-1","","true","0","3","","","","","","","","","","",""
"","html-keyboard-response","138","260953","0.0-1.0-7.0-3.0-2.0-7.0","null"," ","null","feedback","","","","","","true","","","","","","","","","","","","",""
"","categorize-html","139","262461","0.0-1.0-7.0-3.0-2.0-8.0","null","<p>E</p>","null","combine","false","false","90","-1","","true","0","3","","","","","","","","","","",""
"","html-keyboard-response","140","263225","0.0-1.0-7.0-3.0-2.0-9.0","null"," ","null","feedback","","","","","","true","","","","","","","","","","","","",""
"","categorize-html","141","264740","0.0-1.0-7.0-3.0-2.0-10.0","null","<p>R</p>","null","combine","false","false","90","-1","","true","0","3","","","","","","","","","","",""
"","html-keyboard-response","142","265493","0.0-1.0-7.0-3.0-2.0-11.0","null"," ","null","feedback","","","","","","true","","","","","","","","","","","","",""
"","categorize-html","143","266232","0.0-1.0-7.0-3.0-2.0-12.0","735.175000037998","<p>X</p>","72","combine","true","false","72","-1","","true","1","3","","","","","","","","","","",""
"","html-keyboard-response","144","266986","0.0-1.0-7.0-3.0-2.0-13.0","null","Correct!","null","feedback","","","","","","true","","","","","","","","","","","","",""
"","categorize-html","145","267536","0.0-1.0-7.0-3.0-2.0-14.0","546.3499999605119","<p>E</p>","72","combine","true","false","72","-1","","true","1","3","","","","","","","","","","",""
"","html-keyboard-response","146","268293","0.0-1.0-7.0-3.0-2.0-15.0","null","Correct!","null","feedback","","","","","","true","","","","","","","","","","","","",""
"","categorize-html","147","269111","0.0-1.0-7.0-3.0-2.0-16.0","814.6549998782575","<p>R</p>","72","combine","true","false","72","-1","","true","1","3","","","","","","","","","","",""
"","html-keyboard-response","148","269864","0.0-1.0-7.0-3.0-2.0-17.0","null","Correct!","null","feedback","","","","","","true","","","","","","","","","","","","",""
"","categorize-html","149","271380","0.0-1.0-7.0-3.0-2.0-18.0","null","<p>R</p>","null","combine","false","false","90","-1","","true","0","3","","","","","","","","","","",""
"","html-keyboard-response","150","272148","0.0-1.0-7.0-3.0-2.0-19.0","null"," ","null","feedback","","","","","","true","","","","","","","","","","","","",""
"","categorize-html","151","272887","0.0-1.0-7.0-3.0-2.0-20.0","736.100000096485","<p>X</p>","72","combine","false","false","90","-1","","true","0","3","","","","","","","","","","",""
"","html-keyboard-response","152","273666","0.0-1.0-7.0-3.0-2.0-21.0","null","Not a match! Press nothing.","null","feedback","","","","","","true","","","","","","","","","","","","",""
"","categorize-html","153","274379","0.0-1.0-7.0-3.0-2.0-22.0","710.2799999993294","<p>E</p>","72","combine","false","false","90","-1","","true","0","3","","","","","","","","","","",""
"","html-keyboard-response","154","275138","0.0-1.0-7.0-3.0-2.0-23.0","null","Not a match! Press nothing.","null","feedback","","","","","","true","","","","","","","","","","","","",""
"","categorize-html","155","275881","0.0-1.0-7.0-3.0-2.0-24.0","739.2700000200421","<p>R</p>","72","combine","true","false","72","-1","","true","1","3","","","","","","","","","","",""
"","html-keyboard-response","156","276641","0.0-1.0-7.0-3.0-2.0-25.0","null","Correct!","null","feedback","","","","","","true","","","","","","","","","","","","",""
"","categorize-html","157","277724","0.0-1.0-7.0-3.0-2.0-26.0","1080.9949999675155","<p>X</p>","72","combine","true","false","72","-1","","true","1","3","","","","","","","","","","",""
"","html-keyboard-response","158","278481","0.0-1.0-7.0-3.0-2.0-27.0","null","Correct!","null","feedback","","","","","","true","","","","","","","","","","","","",""
"","categorize-html","159","279315","0.0-1.0-7.0-3.0-2.0-28.0","832.0850001182407","<p>E</p>","72","combine","true","false","72","-1","","true","1","3","","","","","","","","","","",""
"","html-keyboard-response","160","280072","0.0-1.0-7.0-3.0-2.0-29.0","null","Correct!","null","feedback","","","","","","true","","","","","","","","","","","","",""
"","html-keyboard-response","161","288703","0.0-1.0-7.0-16.0-0.0","8625.370000023395","<p>Good job! You have reached 80% accuracy on this practice task. We will now move on.</p><p>[Press the space bar to continue.]</p>","32","debrief","","","","","","","","","","","","","","","","","","",""
"","html-keyboard-response","162","321053","0.0-1.0-8.0-0.0-0.0","32348.119999980554","<p>Please read these instructions carefully, as you will be tested on your understanding of them.</p><p>Before each round begins, you will be asked how many points is a fair wage to be at least 80% accurate at one of the tasks you just practiced.</p><p>We want you to tell us truthfully how many points is a fair wage, and so we are using a payment process where <strong>telling the truth is the best strategy.</strong></p><p>This means that <strong>you have some control over what you will be paid</strong> at the end of the experiment.</p><p>Whenever given a choice, <strong> the best thing you can do is to always ask for what you consider to be a fair wage for at least 80% accuracy on the task.</strong></p><p>[Press the space bar to continue.]</p>","32","","","","","","","","","","","","","","","","","","","",""
"","html-keyboard-response","163","340807","0.0-1.0-8.0-1.0-0.0","19754.624999826774","<p>What do we mean by ""fair wage""?</p><p>When you get hired to complete some work, you may ask for more or less payment based on how much you would enjoy doing that work.</p><p>For example, you might dislike mowing the lawn more than watering the garden, and may ask for more in return for mowing the lawn.</p><p>A fair wage for you is the amount of points you think it would be fair for you to receive in exchange for your completion of the task.</p><p>While you won't get paid exactly what you ask for, the best strategy is to ask for what you truly believe is a fair wage for you.</p><p>We're not going to get into the exact reasons why until the end of the experiment.</p><p>[Press the space bar to continue.]</p>","32","","","","","","","","","","","","","","","","","","","",""
"","html-keyboard-response","164","392530","0.0-1.0-8.0-2.0-0.0","51721.11500008032","<p>In short, once you report your fair wage, the computer will present you with a <strong> random offer.</strong></p><p>If you ask for fewer points than the computer offers you, then you will complete the task and be given the points the computer offered.</p><p>Say you ask for 3 points and the computer offers 4, then if you pass the task with at least 80% accuracy, you will be given 4 points.</p><p>If you ask for more points than the computer offers you, then you will do a different task on that round. The alternate task is worth <strong>1 point.</strong></p><p>For example, if you ask for 5 points and the computer offers 4 points, then you will do something else and be given 1 point.</p><p>There is no way to game the payment system. You will either get the computer's random point offer, or 1 point for an alternative task.</p><p>[Press the space bar to continue.]</p>","32","","","","","","","","","","","","","","","","","","","",""
"","html-slider-response","165","419280","0.0-1.0-8.0-3.0-0.0-0.0","26739.354999968782","<img src=""./static/img/fractal3.jpg"" width=""250"" height=""250""","","instructs","","","","","","","","","","28","","","","","","","","",""
"","html-keyboard-response","166","424888","0.0-1.0-8.0-3.0-1.0-0.0","5606.30499990657","<p>You asked for 2.12 points.</p><p>The computer offered 4.88 points.</p><p>Because the computer's offer is larger, you would move onto the pictured task and, if you achieved 80% accuracy on this task, you would be given 4.88 points at the end.</p><p>Press the space bar to continue.</p>","32","","","","","","","","","","","","","","","","","","","",""
"","html-slider-response","167","429547","0.0-1.0-8.0-3.0-2.0-0.0","4654.4349999167025","<img src=""./static/img/fractal3.jpg"" width=""250"" height=""250""","","instructs","","","","","","","","","","84","","","","","","","","",""
"","html-keyboard-response","168","435077","0.0-1.0-8.0-3.0-3.0-0.0","5527.890000026673","<p>You asked for 4.36 points.</p><p>The computer offered 1.24 points.</p><p>Because the computer's offer is smaller, you would skip the pictured task and, if you achieved 80% accuracy on an alternate task, you would be given 1 point at the end.</p><p>Press the space bar to continue.</p>","32","","","","","","","","","","","","","","","","","","","",""
"","html-keyboard-response","169","443546","0.0-1.0-8.0-4.0-0.0","8467.010000022128","<p><strong> Your best strategy is to always ask for what you believe is a fair wage for hitting at least 80% accuracy on 1 round of a task.</strong></p><p>We will now quiz you on the instructions you've just read. If you fail this quiz, you cannot participate in this experiment.</p><p>Press R if you'd like to read these instructions again.</p><p>Press the space bar if you'd like to move on to the quiz.</p>","32","","","","","","","","","","","","","","","","","","","",""
"","categorize-html","170","450051","0.0-1.0-8.0-6.0-0.0","4486.220000078902","<p'font-size':15px>[Question 1 of 6]</p><p'font-size':25px>[Press A or B to indicate your answer.]</p><p'font-size':25px>Imagine you think a true fair wage is 2 points. Which amount should you ask for?</p><p 'font-size':25px> A. 4</p><p 'font-size':25px> B. 2</p>","66","quiz","true","","","","","","","","","","","","","","","","","",""
"","categorize-html","171","457921","0.0-1.0-8.0-6.0-0.1","5855.134999845177","<p'font-size':15px>[Question 2 of 6]</p><p'font-size':25px>[Press A or B to indicate your answer.]</p><p><img src='./static/img/offer_big.png'></p><p'font-size':25px>What happens when you ask for <strong>more</strong> points than the computer offers?</p><p>A. You will start the pictured task, and get the points the computer offered if you pass that round.</p><p 'font-size':25px> B. You will start a different task and be given 1 point if you pass that round.</p>","66","quiz","true","","","","","","","","","","","","","","","","","",""
"","categorize-html","172","472884","0.0-1.0-8.0-6.0-0.2","12949.034999823198","<p'font-size':15px>[Question 3 of 6]</p><p'font-size':25px>[Press A or B to indicate your answer.]</p><p'font-size':25px>Under which of the following two conditions will you do the pictured task?</p><p>A. When you ask for 2 points, and the computer randomly offers 3 points.</p><p 'font-size':25px> B. When you ask for 2 points, and the computer randomly offers 1 point.</p>","65","quiz","true","","","","","","","","","","","","","","","","","",""
"","categorize-html","173","480192","0.0-1.0-8.0-6.0-0.3","5289.765000110492","<p'font-size':15px>[Question 4 of 6]</p><p'font-size':25px>[Press A or B to indicate your answer.]</p><p><img src='./static/img/offer_small.png'></p><p'font-size':25px>What happens when you ask for <strong>fewer</strong> points than the computer offers?</p><p>A. You will start the task, and get the points the computer offered if you pass that round.</p><p 'font-size':25px> B. You will start a different task and be given 1 point if you pass that round.</p>","65","quiz","true","","","","","","","","","","","","","","","","","",""
"","categorize-html","174","490136","0.0-1.0-8.0-6.0-0.4","7908.954999875277","<p'font-size':15px>[Question 5 of 6]</p><p'font-size':25px>[Press A or B to indicate your answer.]</p><p'font-size':25px>Under which of the following two conditions will you <strong>not</strong> do the pictured task?</p><p>A. When you ask for 3 points, and the computer randomly offers 2 points.</p><p 'font-size':25px> B. When you ask for 3 points, and the computer randomly offers 4 points.</p>","65","quiz","true","","","","","","","","","","","","","","","","","",""
"","categorize-html","175","503278","0.0-1.0-8.0-6.0-0.5","11130.67499990575","<p'font-size':15px>[Question 6 of 6]</p><p'font-size':25px>[Press A or B to indicate your answer.]</p><p'font-size':25px>Which is the correct strategy for asking for points?</p><p>A. Ask for as many points as possible.</p><p 'font-size':25px> B. Tell the truth about what is a fair wage for you.</p>","66","quiz","true","","","","","","","","","","","","","","","","","",""
"","html-keyboard-response","176","517521","0.0-1.0-8.0-7.0-0.0","14240.425000200048","<p>Great job! We will now begin the real experiment.</p><p>[Press the space bar to continue.]</p>","32","BDMquiz","","","","","","","","","","","100","","","","","","","",""
"","html-keyboard-response","177","528399","0.0-1.0-9.0-0.0","10876.029999926686","<p>The real experiment will now start. </p><p>For each round of the experiment, you will be asked how many points you would like to earn to complete a task.</p><p>If you ask for more points than a randomly generated number, you will not complete that task. </p><p>Instead, you will complete a different task and earn 1 point.</p><p>At the end of the experiment, the points you earn will be counted and turned into a bonus payment. $$</p><p>[Press the space bar to continue.]</p>","32","instructions","","","","","","","","","","","","","","","","","","",""
"","html-keyboard-response","178","534731","0.0-1.0-10.0-0.0","6333.155000116676","<p>Pay attention! If you are not at least 80% accurate, you will not earn points for completing each task.</p><p>You will not be getting the same amount of feedback on your performance in the real experiment.</p><p>If you press a button, the stimulus on screen will turn red to show you that the computer registered your response.</p><p>If we can tell that you are not paying attention (not accurate enough or not responding quickly enough), then this HIT will end early and you will earn a smaller payment. $$</p><p>[Press the space bar to begin the real experiment.]</p>","32","instructions","","","","","","","","","","","","","","","","","","",""
"","html-slider-response","179","549112","0.0-2.0-0.0-0.0","14376.56500004232","<img src=""./static/img/fractal1.jpg"" width=""250"" height=""250""","","BDM","","","","0","","","","","","84","","6.72742771697028","","","","","","",""
"","html-keyboard-response","180","553312","0.0-2.0-1.0-0.0","4196.944999974221","<p style='font-size':25px> You want <strong> 4.36 </strong> points. </p> <p> The computer offers <strong>3.00</strong> points. </p><p> You will do the following task instead to earn 1 point. </p> <img src=""./static/img/fractal2.png"" width=""250"" height=""250"" location='center'></img><p>[Press the space bar to continue.]</p>","32","","","","","","","","","","","","","","","","","","","",""
"","html-keyboard-response","181","553414","0.0-2.0-3.0-0.0","null","+","null","","","","","","","","","","","","","","","","","","","",""
"","html-keyboard-response","182","562450","0.0-2.0-3.0-1.0-0.0","9034.454999957234","<p>In this task, you will need to press <strong>K</strong> every time you see the target letter <strong>T</strong>. </p><p>You must respond while the letter is on screen or your answer will not count.</p><p> Pay attention! If you are not at least 80% accurate, you will not earn points for completing this task.</p> <p>Press space to begin.</p>","32","instructions","","","","","","","","","","","","","","","","","","",""
"","categorize-html","183","563960","0.0-2.0-3.0-2.0-0.0","null","<p>X</p>","null","detection","false","false","90","0","","","","","","","","","2","","","","","",""
"","html-keyboard-response","184","563962","0.0-2.0-3.0-2.0-1.0","null","<p style=""color: red"">X</p>","null","feedback","","","","","","","","","","","","","","","","","","",""
"","html-keyboard-response","185","564276","0.0-2.0-3.0-2.0-2.0","null"," ","null","ITI","","","","","","","","","","","","","","","","","","",""
"","categorize-html","186","565795","0.0-2.0-3.0-2.0-3.0","null","<p>E</p>","null","detection","false","false","90","0","","","","","","","","","0","","","","","",""
"","html-keyboard-response","187","565801","0.0-2.0-3.0-2.0-4.0","null","<p style=""color: red"">E</p>","null","feedback","","","","","","","","","","","","","","","","","","",""
"","html-keyboard-response","188","566112","0.0-2.0-3.0-2.0-5.0","null"," ","null","ITI","","","","","","","","","","","","","","","","","","",""
"","categorize-html","189","567634","0.0-2.0-3.0-2.0-6.0","null","<p>R</p>","null","detection","false","false","90","0","","","","","","","","","1","","","","","",""
"","html-keyboard-response","190","567641","0.0-2.0-3.0-2.0-7.0","null","<p style=""color: red"">R</p>","null","feedback","","","","","","","","","","","","","","","","","","",""
"","html-keyboard-response","191","567943","0.0-2.0-3.0-2.0-8.0","null"," ","null","ITI","","","","","","","","","","","","","","","","","","",""
"","categorize-html","192","569461","0.0-2.0-3.0-2.0-9.0","null","<p>X</p>","null","detection","false","false","90","0","","","","","","","","","2","","","","","",""
"","html-keyboard-response","193","569468","0.0-2.0-3.0-2.0-10.0","null","<p style=""color: red"">X</p>","null","feedback","","","","","","","","","","","","","","","","","","",""
"","html-keyboard-response","194","569775","0.0-2.0-3.0-2.0-11.0","null"," ","null","ITI","","","","","","","","","","","","","","","","","","",""
"","categorize-html","195","570179","0.0-2.0-3.0-2.0-12.0","401.4000000897795","<p>T</p>","75","detection","true","true","75","0","","","","","","","","","3","","","","","",""
"","html-keyboard-response","196","571288","0.0-2.0-3.0-2.0-13.0","null","<p style=""color: red"">T</p>","null","feedback","","","","","","","","","","","","","","","","","","",""
"","html-keyboard-response","197","571590","0.0-2.0-3.0-2.0-14.0","null"," ","null","ITI","","","","","","","","","","","","","","","","","","",""
"","categorize-html","198","573112","0.0-2.0-3.0-2.0-15.0","null","<p>X</p>","null","detection","false","false","90","0","","","","","","","","","2","","","","","",""
"","html-keyboard-response","199","573119","0.0-2.0-3.0-2.0-16.0","null","<p style=""color: red"">X</p>","null","feedback","","","","","","","","","","","","","","","","","","",""
"","html-keyboard-response","200","573424","0.0-2.0-3.0-2.0-17.0","null"," ","null","ITI","","","","","","","","","","","","","","","","","","",""
"","categorize-html","201","574934","0.0-2.0-3.0-2.0-18.0","null","<p>E</p>","null","detection","false","false","90","0","","","","","","","","","0","","","","","",""
"","html-keyboard-response","202","574959","0.0-2.0-3.0-2.0-19.0","null","<p style=""color: red"">E</p>","null","feedback","","","","","","","","","","","","","","","","","","",""
"","html-keyboard-response","203","575272","0.0-2.0-3.0-2.0-20.0","null"," ","null","ITI","","","","","","","","","","","","","","","","","","",""
"","categorize-html","204","575681","0.0-2.0-3.0-2.0-21.0","406.48500015959144","<p>T</p>","75","detection","true","true","75","0","","","","","","","","","3","","","","","",""
"","html-keyboard-response","205","576786","0.0-2.0-3.0-2.0-22.0","null","<p style=""color: red"">T</p>","null","feedback","","","","","","","","","","","","","","","","","","",""
"","html-keyboard-response","206","577089","0.0-2.0-3.0-2.0-23.0","null"," ","null","ITI","","","","","","","","","","","","","","","","","","",""
"","categorize-html","207","578604","0.0-2.0-3.0-2.0-24.0","null","<p>E</p>","null","detection","false","false","90","0","","","","","","","","","0","","","","","",""
"","html-keyboard-response","208","578610","0.0-2.0-3.0-2.0-25.0","null","<p style=""color: red"">E</p>","null","feedback","","","","","","","","","","","","","","","","","","",""
"","html-keyboard-response","209","578913","0.0-2.0-3.0-2.0-26.0","null"," ","null","ITI","","","","","","","","","","","","","","","","","","",""
"","categorize-html","210","580431","0.0-2.0-3.0-2.0-27.0","null","<p>X</p>","null","detection","false","false","90","0","","","","","","","","","2","","","","","",""
"","html-keyboard-response","211","580437","0.0-2.0-3.0-2.0-28.0","null","<p style=""color: red"">X</p>","null","feedback","","","","","","","","","","","","","","","","","","",""
"","html-keyboard-response","212","580752","0.0-2.0-3.0-2.0-29.0","null"," ","null","ITI","","","","","","","","","","","","","","","","","","",""
"","categorize-html","213","582271","0.0-2.0-3.0-2.0-30.0","null","<p>R</p>","null","detection","false","false","90","0","","","","","","","","","1","","","","","",""
"","html-keyboard-response","214","582277","0.0-2.0-3.0-2.0-31.0","null","<p style=""color: red"">R</p>","null","feedback","","","","","","","","","","","","","","","","","","",""
"","html-keyboard-response","215","582586","0.0-2.0-3.0-2.0-32.0","null"," ","null","ITI","","","","","","","","","","","","","","","","","","",""
"","categorize-html","216","584093","0.0-2.0-3.0-2.0-33.0","null","<p>E</p>","null","detection","false","false","90","0","","","","","","","","","0","","","","","",""
"","html-keyboard-response","217","584100","0.0-2.0-3.0-2.0-34.0","null","<p style=""color: red"">E</p>","null","feedback","","","","","","","","","","","","","","","","","","",""
"","html-keyboard-response","218","584402","0.0-2.0-3.0-2.0-35.0","null"," ","null","ITI","","","","","","","","","","","","","","","","","","",""
"","categorize-html","219","585908","0.0-2.0-3.0-2.0-36.0","null","<p>X</p>","null","detection","false","false","90","0","","","","","","","","","2","","","","","",""
"","html-keyboard-response","220","585914","0.0-2.0-3.0-2.0-37.0","null","<p style=""color: red"">X</p>","null","feedback","","","","","","","","","","","","","","","","","","",""
"","html-keyboard-response","221","586220","0.0-2.0-3.0-2.0-38.0","null"," ","null","ITI","","","","","","","","","","","","","","","","","","",""
"","categorize-html","222","586675","0.0-2.0-3.0-2.0-39.0","451.6100001055747","<p>T</p>","75","detection","true","true","75","0","","","","","","","","","3","","","","","",""
"","html-keyboard-response","223","587737","0.0-2.0-3.0-2.0-40.0","null","<p style=""color: red"">T</p>","null","feedback","","","","","","","","","","","","","","","","","","",""
"","html-keyboard-response","224","588049","0.0-2.0-3.0-2.0-41.0","null"," ","null","ITI","","","","","","","","","","","","","","","","","","",""
"","categorize-html","225","589558","0.0-2.0-3.0-2.0-42.0","null","<p>E</p>","null","detection","false","false","90","0","","","","","","","","","0","","","","","",""
"","html-keyboard-response","226","589564","0.0-2.0-3.0-2.0-43.0","null","<p style=""color: red"">E</p>","null","feedback","","","","","","","","","","","","","","","","","","",""
"","html-keyboard-response","227","589866","0.0-2.0-3.0-2.0-44.0","null"," ","null","ITI","","","","","","","","","","","","","","","","","","",""
"","html-keyboard-response","228","591685","0.0-2.0-3.0-3.0","1816.73499988392","<p>Great job! You earned 1 point(s) from this task.</p> </p><p>Press the space bar to continue. </p>","32","debrief","","","","","","","","","","","","","","","","","","",""
"","html-slider-response","229","600534","0.0-2.0-4.0-0.0","8843.225000193343","<img src=""./static/img/fractal1.jpg"" width=""250"" height=""250""","","BDM","","","","1","","","","","","72","","3.2331441098788494","","","","","","",""
"","html-keyboard-response","230","604427","0.0-2.0-5.0-0.0","3890.049999812618","<p style='font-size':25px> You want <strong> 3.88 </strong> points. </p> <p> The computer offers <strong>3.64</strong> points. </p><p> You will do the following task instead to earn 1 point. </p> <img src=""./static/img/fractal2.png"" width=""250"" height=""250"" location='center'></img><p>[Press the space bar to continue.]</p>","32","","","","","","","","","","","","","","","","","","","",""
"","html-keyboard-response","231","604544","0.0-2.0-7.0-0.0","null","+","null","","","","","","","","","","","","","","","","","","","",""
"","html-keyboard-response","232","606886","0.0-2.0-7.0-1.0-0.0","2339.89500021562","<p>In this task, you will need to press <strong>K</strong> every time you see the target letter <strong>T</strong>. </p><p>You must respond while the letter is on screen or your answer will not count.</p><p> Pay attention! If you are not at least 80% accurate, you will not earn points for completing this task.</p> <p>Press space to begin.</p>","32","instructions","","","","","","","","","","","","","","","","","","",""
"","categorize-html","233","608403","0.0-2.0-7.0-2.0-0.0","null","<p>R</p>","null","detection","false","false","90","1","","","","","","","","","1","","","","","",""
"","html-keyboard-response","234","608406","0.0-2.0-7.0-2.0-1.0","null","<p style=""color: red"">R</p>","null","feedback","","","","","","","","","","","","","","","","","","",""
"","html-keyboard-response","235","608714","0.0-2.0-7.0-2.0-2.0","null"," ","null","ITI","","","","","","","","","","","","","","","","","","",""
"","categorize-html","236","610224","0.0-2.0-7.0-2.0-3.0","null","<p>E</p>","null","detection","false","false","90","1","","","","","","","","","0","","","","","",""
"","html-keyboard-response","237","610231","0.0-2.0-7.0-2.0-4.0","null","<p style=""color: red"">E</p>","null","feedback","","","","","","","","","","","","","","","","","","",""
"","html-keyboard-response","238","610547","0.0-2.0-7.0-2.0-5.0","null"," ","null","ITI","","","","","","","","","","","","","","","","","","",""
"","categorize-html","239","612057","0.0-2.0-7.0-2.0-6.0","null","<p>X</p>","null","detection","false","false","90","1","","","","","","","","","2","","","","","",""
"","html-keyboard-response","240","612064","0.0-2.0-7.0-2.0-7.0","null","<p style=""color: red"">X</p>","null","feedback","","","","","","","","","","","","","","","","","","",""
"","html-keyboard-response","241","612380","0.0-2.0-7.0-2.0-8.0","null"," ","null","ITI","","","","","","","","","","","","","","","","","","",""
"","categorize-html","242","613889","0.0-2.0-7.0-2.0-9.0","null","<p>X</p>","null","detection","false","false","90","1","","","","","","","","","2","","","","","",""
"","html-keyboard-response","243","613896","0.0-2.0-7.0-2.0-10.0","null","<p style=""color: red"">X</p>","null","feedback","","","","","","","","","","","","","","","","","","",""
"","html-keyboard-response","244","614207","0.0-2.0-7.0-2.0-11.0","null"," ","null","ITI","","","","","","","","","","","","","","","","","","",""
"","categorize-html","245","614580","0.0-2.0-7.0-2.0-12.0","371.1950001306832","<p>T</p>","75","detection","true","true","75","1","","","","","","","","","3","","","","","",""
"","html-keyboard-response","246","615723","0.0-2.0-7.0-2.0-13.0","null","<p style=""color: red"">T</p>","null","feedback","","","","","","","","","","","","","","","","","","",""
"","html-keyboard-response","247","616025","0.0-2.0-7.0-2.0-14.0","null"," ","null","ITI","","","","","","","","","","","","","","","","","","",""
"","categorize-html","248","616589","0.0-2.0-7.0-2.0-15.0","561.0500001348555","<p>T</p>","75","detection","true","true","75","1","","","","","","","","","3","","","","","",""
"","html-keyboard-response","249","617530","0.0-2.0-7.0-2.0-16.0","null","<p style=""color: red"">T</p>","null","feedback","","","","","","","","","","","","","","","","","","",""
"","html-keyboard-response","250","617835","0.0-2.0-7.0-2.0-17.0","null"," ","null","ITI","","","","","","","","","","","","","","","","","","",""
"","categorize-html","251","619352","0.0-2.0-7.0-2.0-18.0","null","<p>X</p>","null","detection","false","false","90","1","","","","","","","","","2","","","","","",""
"","html-keyboard-response","252","619357","0.0-2.0-7.0-2.0-19.0","null","<p style=""color: red"">X</p>","null","feedback","","","","","","","","","","","","","","","","","","",""
"","html-keyboard-response","253","619659","0.0-2.0-7.0-2.0-20.0","null"," ","null","ITI","","","","","","","","","","","","","","","","","","",""
"","categorize-html","254","621169","0.0-2.0-7.0-2.0-21.0","null","<p>R</p>","null","detection","false","false","90","1","","","","","","","","","1","","","","","",""
"","html-keyboard-response","255","621174","0.0-2.0-7.0-2.0-22.0","null","<p style=""color: red"">R</p>","null","feedback","","","","","","","","","","","","","","","","","","",""
"","html-keyboard-response","256","621491","0.0-2.0-7.0-2.0-23.0","null"," ","null","ITI","","","","","","","","","","","","","","","","","","",""
"","categorize-html","257","622998","0.0-2.0-7.0-2.0-24.0","null","<p>E</p>","null","detection","false","false","90","1","","","","","","","","","0","","","","","",""
"","html-keyboard-response","258","623005","0.0-2.0-7.0-2.0-25.0","null","<p style=""color: red"">E</p>","null","feedback","","","","","","","","","","","","","","","","","","",""
"","html-keyboard-response","259","623306","0.0-2.0-7.0-2.0-26.0","null"," ","null","ITI","","","","","","","","","","","","","","","","","","",""
"","categorize-html","260","624815","0.0-2.0-7.0-2.0-27.0","null","<p>X</p>","null","detection","false","false","90","1","","","","","","","","","2","","","","","",""
"","html-keyboard-response","261","624822","0.0-2.0-7.0-2.0-28.0","null","<p style=""color: red"">X</p>","null","feedback","","","","","","","","","","","","","","","","","","",""
"","html-keyboard-response","262","625124","0.0-2.0-7.0-2.0-29.0","null"," ","null","ITI","","","","","","","","","","","","","","","","","","",""
"","categorize-html","263","626631","0.0-2.0-7.0-2.0-30.0","null","<p>R</p>","null","detection","false","false","90","1","","","","","","","","","1","","","","","",""
"","html-keyboard-response","264","626638","0.0-2.0-7.0-2.0-31.0","null","<p style=""color: red"">R</p>","null","feedback","","","","","","","","","","","","","","","","","","",""
"","html-keyboard-response","265","626943","0.0-2.0-7.0-2.0-32.0","null"," ","null","ITI","","","","","","","","","","","","","","","","","","",""
"","categorize-html","266","628450","0.0-2.0-7.0-2.0-33.0","null","<p>E</p>","null","detection","false","false","90","1","","","","","","","","","0","","","","","",""
"","html-keyboard-response","267","628456","0.0-2.0-7.0-2.0-34.0","null","<p style=""color: red"">E</p>","null","feedback","","","","","","","","","","","","","","","","","","",""
"","html-keyboard-response","268","628764","0.0-2.0-7.0-2.0-35.0","null"," ","null","ITI","","","","","","","","","","","","","","","","","","",""
"","categorize-html","269","630277","0.0-2.0-7.0-2.0-36.0","null","<p>E</p>","null","detection","false","false","90","1","","","","","","","","","0","","","","","",""
"","html-keyboard-response","270","630283","0.0-2.0-7.0-2.0-37.0","null","<p style=""color: red"">E</p>","null","feedback","","","","","","","","","","","","","","","","","","",""
"","html-keyboard-response","271","630596","0.0-2.0-7.0-2.0-38.0","null"," ","null","ITI","","","","","","","","","","","","","","","","","","",""
"","categorize-html","272","630968","0.0-2.0-7.0-2.0-39.0","368.5750002041459","<p>T</p>","75","detection","true","true","75","1","","","","","","","","","3","","","","","",""
"","html-keyboard-response","273","632101","0.0-2.0-7.0-2.0-40.0","null","<p style=""color: red"">T</p>","null","feedback","","","","","","","","","","","","","","","","","","",""
"","html-keyboard-response","274","632403","0.0-2.0-7.0-2.0-41.0","null"," ","null","ITI","","","","","","","","","","","","","","","","","","",""
"","categorize-html","275","633925","0.0-2.0-7.0-2.0-42.0","null","<p>X</p>","null","detection","false","false","90","1","","","","","","","","","2","","","","","",""
"","html-keyboard-response","276","633932","0.0-2.0-7.0-2.0-43.0","null","<p style=""color: red"">X</p>","null","feedback","","","","","","","","","","","","","","","","","","",""
"","html-keyboard-response","277","634236","0.0-2.0-7.0-2.0-44.0","null"," ","null","ITI","","","","","","","","","","","","","","","","","","",""
"","html-keyboard-response","278","635172","0.0-2.0-7.0-3.0","934.4100002199411","<p>Great job! You earned 1 point(s) from this task.</p> </p><p>Press the space bar to continue. </p>","32","debrief","","","","","","","","","","","","","","","","","","",""
"","html-slider-response","279","650166","0.0-2.0-8.0-0.0","14989.220000104979","<img src=""./static/img/fractal1.jpg"" width=""250"" height=""250""","","BDM","","","","2","","","","","","76","","27.839377740701067","","","","","","",""
"","html-keyboard-response","280","653856","0.0-2.0-9.0-0.0","3687.374999979511","<p style='font-size':25px> You want <strong> 4.04 </strong> points. </p> <p> The computer offers <strong>1.84</strong> points. </p><p> You will do the following task instead to earn 1 point. </p> <img src=""./static/img/fractal2.png"" width=""250"" height=""250"" location='center'></img><p>[Press the space bar to continue.]</p>","32","","","","","","","","","","","","","","","","","","","",""
"","html-keyboard-response","281","653962","0.0-2.0-11.0-0.0","null","+","null","","","","","","","","","","","","","","","","","","","",""
"","html-keyboard-response","282","658614","0.0-2.0-11.0-1.0-0.0","4662.525000050664","<p>In this task, you will need to press <strong>K</strong> every time you see the target letter <strong>T</strong>. </p><p>You must respond while the letter is on screen or your answer will not count.</p><p> Pay attention! If you are not at least 80% accurate, you will not earn points for completing this task.</p> <p>Press space to begin.</p>","32","instructions","","","","","","","","","","","","","","","","","","",""
"","categorize-html","283","660125","0.0-2.0-11.0-2.0-0.0","null","<p>X</p>","null","detection","false","false","90","2","","","","","","","","","2","","","","","",""
"","html-keyboard-response","284","660129","0.0-2.0-11.0-2.0-1.0","null","<p style=""color: red"">X</p>","null","feedback","","","","","","","","","","","","","","","","","","",""
"","html-keyboard-response","285","660434","0.0-2.0-11.0-2.0-2.0","null"," ","null","ITI","","","","","","","","","","","","","","","","","","",""
"","categorize-html","286","661951","0.0-2.0-11.0-2.0-3.0","null","<p>E</p>","null","detection","false","false","90","2","","","","","","","","","0","","","","","",""
"","html-keyboard-response","287","661958","0.0-2.0-11.0-2.0-4.0","null","<p style=""color: red"">E</p>","null","feedback","","","","","","","","","","","","","","","","","","",""
"","html-keyboard-response","288","662266","0.0-2.0-11.0-2.0-5.0","null"," ","null","ITI","","","","","","","","","","","","","","","","","","",""
"","categorize-html","289","663779","0.0-2.0-11.0-2.0-6.0","null","<p>X</p>","null","detection","false","false","90","2","","","","","","","","","2","","","","","",""
"","html-keyboard-response","290","663785","0.0-2.0-11.0-2.0-7.0","null","<p style=""color: red"">X</p>","null","feedback","","","","","","","","","","","","","","","","","","",""
"","html-keyboard-response","291","664098","0.0-2.0-11.0-2.0-8.0","null"," ","null","ITI","","","","","","","","","","","","","","","","","","",""
"","categorize-html","292","665613","0.0-2.0-11.0-2.0-9.0","null","<p>R</p>","null","detection","false","false","90","2","","","","","","","","","1","","","","","",""
"","html-keyboard-response","293","665620","0.0-2.0-11.0-2.0-10.0","null","<p style=""color: red"">R</p>","null","feedback","","","","","","","","","","","","","","","","","","",""
"","html-keyboard-response","294","665921","0.0-2.0-11.0-2.0-11.0","null"," ","null","ITI","","","","","","","","","","","","","","","","","","",""
"","categorize-html","295","667439","0.0-2.0-11.0-2.0-12.0","null","<p>X</p>","null","detection","false","false","90","2","","","","","","","","","2","","","","","",""
"","html-keyboard-response","296","667445","0.0-2.0-11.0-2.0-13.0","null","<p style=""color: red"">X</p>","null","feedback","","","","","","","","","","","","","","","","","","",""
"","html-keyboard-response","297","667756","0.0-2.0-11.0-2.0-14.0","null"," ","null","ITI","","","","","","","","","","","","","","","","","","",""
"","categorize-html","298","669270","0.0-2.0-11.0-2.0-15.0","null","<p>R</p>","null","detection","false","false","90","2","","","","","","","","","1","","","","","",""
"","html-keyboard-response","299","669277","0.0-2.0-11.0-2.0-16.0","null","<p style=""color: red"">R</p>","null","feedback","","","","","","","","","","","","","","","","","","",""
"","html-keyboard-response","300","669588","0.0-2.0-11.0-2.0-17.0","null"," ","null","ITI","","","","","","","","","","","","","","","","","","",""
"","categorize-html","301","670051","0.0-2.0-11.0-2.0-18.0","460.0649999920279","<p>T</p>","75","detection","true","true","75","2","","","","","","","","","3","","","","","",""
"","html-keyboard-response","302","671098","0.0-2.0-11.0-2.0-19.0","null","<p style=""color: red"">T</p>","null","feedback","","","","","","","","","","","","","","","","","","",""
"","html-keyboard-response","303","671412","0.0-2.0-11.0-2.0-20.0","null"," ","null","ITI","","","","","","","","","","","","","","","","","","",""
"","categorize-html","304","672934","0.0-2.0-11.0-2.0-21.0","null","<p>X</p>","null","detection","false","false","90","2","","","","","","","","","2","","","","","",""
"","html-keyboard-response","305","672941","0.0-2.0-11.0-2.0-22.0","null","<p style=""color: red"">X</p>","null","feedback","","","","","","","","","","","","","","","","","","",""
"","html-keyboard-response","306","673244","0.0-2.0-11.0-2.0-23.0","null"," ","null","ITI","","","","","","","","","","","","","","","","","","",""
"","categorize-html","307","673676","0.0-2.0-11.0-2.0-24.0","428.55499987490475","<p>T</p>","75","detection","true","true","75","2","","","","","","","","","3","","","","","",""
"","html-keyboard-response","308","674764","0.0-2.0-11.0-2.0-25.0","null","<p style=""color: red"">T</p>","null","feedback","","","","","","","","","","","","","","","","","","",""
"","html-keyboard-response","309","675073","0.0-2.0-11.0-2.0-26.0","null"," ","null","ITI","","","","","","","","","","","","","","","","","","",""
"","categorize-html","310","675503","0.0-2.0-11.0-2.0-27.0","425.32999999821186","<p>T</p>","75","detection","true","true","75","2","","","","","","","","","3","","","","","",""
"","html-keyboard-response","311","676582","0.0-2.0-11.0-2.0-28.0","null","<p style=""color: red"">T</p>","null","feedback","","","","","","","","","","","","","","","","","","",""
"","html-keyboard-response","312","676884","0.0-2.0-11.0-2.0-29.0","null"," ","null","ITI","","","","","","","","","","","","","","","","","","",""
"","categorize-html","313","678396","0.0-2.0-11.0-2.0-30.0","null","<p>R</p>","null","detection","false","false","90","2","","","","","","","","","1","","","","","",""
"","html-keyboard-response","314","678403","0.0-2.0-11.0-2.0-31.0","null","<p style=""color: red"">R</p>","null","feedback","","","","","","","","","","","","","","","","","","",""
"","html-keyboard-response","315","678709","0.0-2.0-11.0-2.0-32.0","null"," ","null","ITI","","","","","","","","","","","","","","","","","","",""
"","categorize-html","316","680222","0.0-2.0-11.0-2.0-33.0","null","<p>E</p>","null","detection","false","false","90","2","","","","","","","","","0","","","","","",""
"","html-keyboard-response","317","680228","0.0-2.0-11.0-2.0-34.0","null","<p style=""color: red"">E</p>","null","feedback","","","","","","","","","","","","","","","","","","",""
"","html-keyboard-response","318","680542","0.0-2.0-11.0-2.0-35.0","null"," ","null","ITI","","","","","","","","","","","","","","","","","","",""
"","categorize-html","319","682049","0.0-2.0-11.0-2.0-36.0","null","<p>E</p>","null","detection","false","false","90","2","","","","","","","","","0","","","","","",""
"","html-keyboard-response","320","682056","0.0-2.0-11.0-2.0-37.0","null","<p style=""color: red"">E</p>","null","feedback","","","","","","","","","","","","","","","","","","",""
"","html-keyboard-response","321","682358","0.0-2.0-11.0-2.0-38.0","null"," ","null","ITI","","","","","","","","","","","","","","","","","","",""
"","categorize-html","322","683864","0.0-2.0-11.0-2.0-39.0","null","<p>E</p>","null","detection","false","false","90","2","","","","","","","","","0","","","","","",""
"","html-keyboard-response","323","683870","0.0-2.0-11.0-2.0-40.0","null","<p style=""color: red"">E</p>","null","feedback","","","","","","","","","","","","","","","","","","",""
"","html-keyboard-response","324","684174","0.0-2.0-11.0-2.0-41.0","null"," ","null","ITI","","","","","","","","","","","","","","","","","","",""
"","categorize-html","325","685681","0.0-2.0-11.0-2.0-42.0","null","<p>E</p>","null","detection","false","false","90","2","","","","","","","","","0","","","","","",""
"","html-keyboard-response","326","685688","0.0-2.0-11.0-2.0-43.0","null","<p style=""color: red"">E</p>","null","feedback","","","","","","","","","","","","","","","","","","",""
"","html-keyboard-response","327","685994","0.0-2.0-11.0-2.0-44.0","null"," ","null","ITI","","","","","","","","","","","","","","","","","","",""
"","html-keyboard-response","328","688684","0.0-2.0-11.0-3.0","2687.004999956116","<p>Great job! You earned 1 point(s) from this task.</p> </p><p>Press the space bar to continue. </p>","32","debrief","","","","","","","","","","","","","","","","","","",""
"","html-slider-response","329","695919","0.0-2.0-12.0-0.0","7231.8549999035895","<img src=""./static/img/fractal1.jpg"" width=""250"" height=""250""","","BDM","","","","3","","","","","","76","","10.909892957913625","","","","","","",""
"","html-keyboard-response","330","700367","0.0-2.0-13.0-0.0","4445.244999835268","<p style='font-size':25px> You want <strong> 4.04 </strong> points. </p> <p> The computer offers <strong>1.00</strong> points. </p><p> You will do the following task instead to earn 1 point. </p> <img src=""./static/img/fractal2.png"" width=""250"" height=""250"" location='center'></img><p>[Press the space bar to continue.]</p>","32","","","","","","","","","","","","","","","","","","","",""
"","html-keyboard-response","331","700483","0.0-2.0-15.0-0.0","null","+","null","","","","","","","","","","","","","","","","","","","",""
"","html-keyboard-response","332","709014","0.0-2.0-15.0-1.0-0.0","8529.595000203699","<p>In this task, you will need to press <strong>K</strong> every time you see the target letter <strong>T</strong>. </p><p>You must respond while the letter is on screen or your answer will not count.</p><p> Pay attention! If you are not at least 80% accurate, you will not earn points for completing this task.</p> <p>Press space to begin.</p>","32","instructions","","","","","","","","","","","","","","","","","","",""
"","categorize-html","333","710526","0.0-2.0-15.0-2.0-0.0","null","<p>E</p>","null","detection","false","false","90","3","","","","","","","","","0","","","","","",""
"","html-keyboard-response","334","710528","0.0-2.0-15.0-2.0-1.0","null","<p style=""color: red"">E</p>","null","feedback","","","","","","","","","","","","","","","","","","",""
"","html-keyboard-response","335","710830","0.0-2.0-15.0-2.0-2.0","null"," ","null","ITI","","","","","","","","","","","","","","","","","","",""
"","categorize-html","336","711338","0.0-2.0-15.0-2.0-3.0","504.9550000112504","<p>T</p>","75","detection","true","true","75","3","","","","","","","","","3","","","","","",""
"","html-keyboard-response","337","712338","0.0-2.0-15.0-2.0-4.0","null","<p style=""color: red"">T</p>","null","feedback","","","","","","","","","","","","","","","","","","",""
"","html-keyboard-response","338","712648","0.0-2.0-15.0-2.0-5.0","null"," ","null","ITI","","","","","","","","","","","","","","","","","","",""
"","categorize-html","339","714169","0.0-2.0-15.0-2.0-6.0","null","<p>E</p>","null","detection","false","false","90","3","","","","","","","","","0","","","","","",""
"","html-keyboard-response","340","714176","0.0-2.0-15.0-2.0-7.0","null","<p style=""color: red"">E</p>","null","feedback","","","","","","","","","","","","","","","","","","",""
"","html-keyboard-response","341","714482","0.0-2.0-15.0-2.0-8.0","null"," ","null","ITI","","","","","","","","","","","","","","","","","","",""
"","categorize-html","342","715995","0.0-2.0-15.0-2.0-9.0","null","<p>X</p>","null","detection","false","false","90","3","","","","","","","","","2","","","","","",""
"","html-keyboard-response","343","716002","0.0-2.0-15.0-2.0-10.0","null","<p style=""color: red"">X</p>","null","feedback","","","","","","","","","","","","","","","","","","",""
"","html-keyboard-response","344","716315","0.0-2.0-15.0-2.0-11.0","null"," ","null","ITI","","","","","","","","","","","","","","","","","","",""
"","categorize-html","345","716858","0.0-2.0-15.0-2.0-12.0","538.5449999012053","<p>T</p>","75","detection","true","true","75","3","","","","","","","","","3","","","","","",""
"","html-keyboard-response","346","717821","0.0-2.0-15.0-2.0-13.0","null","<p style=""color: red"">T</p>","null","feedback","","","","","","","","","","","","","","","","","","",""
"","html-keyboard-response","347","718129","0.0-2.0-15.0-2.0-14.0","null"," ","null","ITI","","","","","","","","","","","","","","","","","","",""
"","categorize-html","348","719658","0.0-2.0-15.0-2.0-15.0","null","<p>X</p>","null","detection","false","false","90","3","","","","","","","","","2","","","","","",""
"","html-keyboard-response","349","719664","0.0-2.0-15.0-2.0-16.0","null","<p style=""color: red"">X</p>","null","feedback","","","","","","","","","","","","","","","","","","",""
"","html-keyboard-response","350","719976","0.0-2.0-15.0-2.0-17.0","null"," ","null","ITI","","","","","","","","","","","","","","","","","","",""
"","categorize-html","351","721498","0.0-2.0-15.0-2.0-18.0","null","<p>R</p>","null","detection","false","false","90","3","","","","","","","","","1","","","","","",""
"","html-keyboard-response","352","721504","0.0-2.0-15.0-2.0-19.0","null","<p style=""color: red"">R</p>","null","feedback","","","","","","","","","","","","","","","","","","",""
"","html-keyboard-response","353","721810","0.0-2.0-15.0-2.0-20.0","null"," ","null","ITI","","","","","","","","","","","","","","","","","","",""
"","categorize-html","354","723328","0.0-2.0-15.0-2.0-21.0","null","<p>R</p>","null","detection","false","false","90","3","","","","","","","","","1","","","","","",""
"","html-keyboard-response","355","723335","0.0-2.0-15.0-2.0-22.0","null","<p style=""color: red"">R</p>","null","feedback","","","","","","","","","","","","","","","","","","",""
"","html-keyboard-response","356","723642","0.0-2.0-15.0-2.0-23.0","null"," ","null","ITI","","","","","","","","","","","","","","","","","","",""
"","categorize-html","357","725152","0.0-2.0-15.0-2.0-24.0","null","<p>R</p>","null","detection","false","false","90","3","","","","","","","","","1","","","","","",""
"","html-keyboard-response","358","725168","0.0-2.0-15.0-2.0-25.0","null","<p style=""color: red"">R</p>","null","feedback","","","","","","","","","","","","","","","","","","",""
"","html-keyboard-response","359","725478","0.0-2.0-15.0-2.0-26.0","null"," ","null","ITI","","","","","","","","","","","","","","","","","","",""
"","categorize-html","360","726990","0.0-2.0-15.0-2.0-27.0","null","<p>X</p>","null","detection","false","false","90","3","","","","","","","","","2","","","","","",""
"","html-keyboard-response","361","726997","0.0-2.0-15.0-2.0-28.0","null","<p style=""color: red"">X</p>","null","feedback","","","","","","","","","","","","","","","","","","",""
"","html-keyboard-response","362","727302","0.0-2.0-15.0-2.0-29.0","null"," ","null","ITI","","","","","","","","","","","","","","","","","","",""
"","categorize-html","363","728817","0.0-2.0-15.0-2.0-30.0","null","<p>E</p>","null","detection","false","false","90","3","","","","","","","","","0","","","","","",""
"","html-keyboard-response","364","728824","0.0-2.0-15.0-2.0-31.0","null","<p style=""color: red"">E</p>","null","feedback","","","","","","","","","","","","","","","","","","",""
"","html-keyboard-response","365","729142","0.0-2.0-15.0-2.0-32.0","null"," ","null","ITI","","","","","","","","","","","","","","","","","","",""
"","categorize-html","366","730649","0.0-2.0-15.0-2.0-33.0","null","<p>X</p>","null","detection","false","false","90","3","","","","","","","","","2","","","","","",""
"","html-keyboard-response","367","730656","0.0-2.0-15.0-2.0-34.0","null","<p style=""color: red"">X</p>","null","feedback","","","","","","","","","","","","","","","","","","",""
"","html-keyboard-response","368","730958","0.0-2.0-15.0-2.0-35.0","null"," ","null","ITI","","","","","","","","","","","","","","","","","","",""
"","categorize-html","369","732478","0.0-2.0-15.0-2.0-36.0","null","<p>R</p>","null","detection","false","false","90","3","","","","","","","","","1","","","","","",""
"","html-keyboard-response","370","732485","0.0-2.0-15.0-2.0-37.0","null","<p style=""color: red"">R</p>","null","feedback","","","","","","","","","","","","","","","","","","",""
"","html-keyboard-response","371","732790","0.0-2.0-15.0-2.0-38.0","null"," ","null","ITI","","","","","","","","","","","","","","","","","","",""
"","categorize-html","372","733155","0.0-2.0-15.0-2.0-39.0","361.83499987237155","<p>T</p>","75","detection","true","true","75","3","","","","","","","","","3","","","","","",""
"","html-keyboard-response","373","734309","0.0-2.0-15.0-2.0-40.0","null","<p style=""color: red"">T</p>","null","feedback","","","","","","","","","","","","","","","","","","",""
"","html-keyboard-response","374","734615","0.0-2.0-15.0-2.0-41.0","null"," ","null","ITI","","","","","","","","","","","","","","","","","","",""
"","categorize-html","375","736124","0.0-2.0-15.0-2.0-42.0","null","<p>R</p>","null","detection","false","false","90","3","","","","","","","","","1","","","","","",""
"","html-keyboard-response","376","736131","0.0-2.0-15.0-2.0-43.0","null","<p style=""color: red"">R</p>","null","feedback","","","","","","","","","","","","","","","","","","",""
"","html-keyboard-response","377","736437","0.0-2.0-15.0-2.0-44.0","null"," ","null","ITI","","","","","","","","","","","","","","","","","","",""
"","html-keyboard-response","378","738176","0.0-2.0-15.0-3.0","1734.8849999252707","<p>Great job! You earned 1 point(s) from this task.</p> </p><p>Press the space bar to continue. </p>","32","debrief","","","","","","","","","","","","","","","","","","",""
"","html-slider-response","379","745626","0.0-2.0-16.0-0.0","7444.900000002235","<img src=""./static/img/fractal1.jpg"" width=""250"" height=""250""","","BDM","","","","4","","","","","","76","","35.568790449727736","","","","","","",""
"","html-keyboard-response","380","748533","0.0-2.0-17.0-0.0","2900.514999870211","<p style='font-size':25px> You want <strong> 4.04 </strong> points. </p> <p> The computer offers <strong>2.56</strong> points. </p><p> You will do the following task instead to earn 1 point. </p> <img src=""./static/img/fractal2.png"" width=""250"" height=""250"" location='center'></img><p>[Press the space bar to continue.]</p>","32","","","","","","","","","","","","","","","","","","","",""
"","html-keyboard-response","381","748644","0.0-2.0-19.0-0.0","null","+","null","","","","","","","","","","","","","","","","","","","",""
"","html-keyboard-response","382","753426","0.0-2.0-19.0-1.0-0.0","4780.825000023469","<p>In this task, you will need to press <strong>K</strong> every time you see the target letter <strong>T</strong>. </p><p>You must respond while the letter is on screen or your answer will not count.</p><p> Pay attention! If you are not at least 80% accurate, you will not earn points for completing this task.</p> <p>Press space to begin.</p>","32","instructions","","","","","","","","","","","","","","","","","","",""
"","categorize-html","383","754943","0.0-2.0-19.0-2.0-0.0","null","<p>E</p>","null","detection","false","false","90","4","","","","","","","","","0","","","","","",""
"","html-keyboard-response","384","754945","0.0-2.0-19.0-2.0-1.0","null","<p style=""color: red"">E</p>","null","feedback","","","","","","","","","","","","","","","","","","",""
"","html-keyboard-response","385","755248","0.0-2.0-19.0-2.0-2.0","null"," ","null","ITI","","","","","","","","","","","","","","","","","","",""
"","categorize-html","386","756759","0.0-2.0-19.0-2.0-3.0","null","<p>X</p>","null","detection","false","false","90","4","","","","","","","","","2","","","","","",""
"","html-keyboard-response","387","756767","0.0-2.0-19.0-2.0-4.0","null","<p style=""color: red"">X</p>","null","feedback","","","","","","","","","","","","","","","","","","",""
"","html-keyboard-response","388","757082","0.0-2.0-19.0-2.0-5.0","null"," ","null","ITI","","","","","","","","","","","","","","","","","","",""
"","categorize-html","389","757689","0.0-2.0-19.0-2.0-6.0","604.2500000912696","<p>T</p>","75","detection","true","true","75","4","","","","","","","","","3","","","","","",""
"","html-keyboard-response","390","758589","0.0-2.0-19.0-2.0-7.0","null","<p style=""color: red"">T</p>","null","feedback","","","","","","","","","","","","","","","","","","",""
"","html-keyboard-response","391","758892","0.0-2.0-19.0-2.0-8.0","null"," ","null","ITI","","","","","","","","","","","","","","","","","","",""
"","categorize-html","392","760414","0.0-2.0-19.0-2.0-9.0","null","<p>E</p>","null","detection","false","false","90","4","","","","","","","","","0","","","","","",""
"","html-keyboard-response","393","760420","0.0-2.0-19.0-2.0-10.0","null","<p style=""color: red"">E</p>","null","feedback","","","","","","","","","","","","","","","","","","",""
"","html-keyboard-response","394","760730","0.0-2.0-19.0-2.0-11.0","null"," ","null","ITI","","","","","","","","","","","","","","","","","","",""
"","categorize-html","395","761181","0.0-2.0-19.0-2.0-12.0","447.6650001015514","<p>T</p>","75","detection","true","true","75","4","","","","","","","","","3","","","","","",""
"","html-keyboard-response","396","762241","0.0-2.0-19.0-2.0-13.0","null","<p style=""color: red"">T</p>","null","feedback","","","","","","","","","","","","","","","","","","",""
"","html-keyboard-response","397","762546","0.0-2.0-19.0-2.0-14.0","null"," ","null","ITI","","","","","","","","","","","","","","","","","","",""
"","categorize-html","398","764066","0.0-2.0-19.0-2.0-15.0","null","<p>R</p>","null","detection","false","false","90","4","","","","","","","","","1","","","","","",""
"","html-keyboard-response","399","764072","0.0-2.0-19.0-2.0-16.0","null","<p style=""color: red"">R</p>","null","feedback","","","","","","","","","","","","","","","","","","",""
"","html-keyboard-response","400","764378","0.0-2.0-19.0-2.0-17.0","null"," ","null","ITI","","","","","","","","","","","","","","","","","","",""
"","categorize-html","401","765888","0.0-2.0-19.0-2.0-18.0","null","<p>X</p>","null","detection","false","false","90","4","","","","","","","","","2","","","","","",""
"","html-keyboard-response","402","765895","0.0-2.0-19.0-2.0-19.0","null","<p style=""color: red"">X</p>","null","feedback","","","","","","","","","","","","","","","","","","",""
"","html-keyboard-response","403","766206","0.0-2.0-19.0-2.0-20.0","null"," ","null","ITI","","","","","","","","","","","","","","","","","","",""
"","categorize-html","404","767720","0.0-2.0-19.0-2.0-21.0","null","<p>E</p>","null","detection","false","false","90","4","","","","","","","","","0","","","","","",""
"","html-keyboard-response","405","767726","0.0-2.0-19.0-2.0-22.0","null","<p style=""color: red"">E</p>","null","feedback","","","","","","","","","","","","","","","","","","",""
"","html-keyboard-response","406","768031","0.0-2.0-19.0-2.0-23.0","null"," ","null","ITI","","","","","","","","","","","","","","","","","","",""
"","categorize-html","407","768378","0.0-2.0-19.0-2.0-24.0","343.7999999150634","<p>T</p>","75","detection","true","true","75","4","","","","","","","","","3","","","","","",""
"","html-keyboard-response","408","769536","0.0-2.0-19.0-2.0-25.0","null","<p style=""color: red"">T</p>","null","feedback","","","","","","","","","","","","","","","","","","",""
"","html-keyboard-response","409","769843","0.0-2.0-19.0-2.0-26.0","null"," ","null","ITI","","","","","","","","","","","","","","","","","","",""
"","categorize-html","410","771353","0.0-2.0-19.0-2.0-27.0","null","<p>X</p>","null","detection","false","false","90","4","","","","","","","","","2","","","","","",""
"","html-keyboard-response","411","771360","0.0-2.0-19.0-2.0-28.0","null","<p style=""color: red"">X</p>","null","feedback","","","","","","","","","","","","","","","","","","",""
"","html-keyboard-response","412","771676","0.0-2.0-19.0-2.0-29.0","null"," ","null","ITI","","","","","","","","","","","","","","","","","","",""
"","categorize-html","413","773183","0.0-2.0-19.0-2.0-30.0","null","<p>R</p>","null","detection","false","false","90","4","","","","","","","","","1","","","","","",""
"","html-keyboard-response","414","773190","0.0-2.0-19.0-2.0-31.0","null","<p style=""color: red"">R</p>","null","feedback","","","","","","","","","","","","","","","","","","",""
"","html-keyboard-response","415","773493","0.0-2.0-19.0-2.0-32.0","null"," ","null","ITI","","","","","","","","","","","","","","","","","","",""
"","categorize-html","416","775001","0.0-2.0-19.0-2.0-33.0","null","<p>X</p>","null","detection","false","false","90","4","","","","","","","","","2","","","","","",""
"","html-keyboard-response","417","775006","0.0-2.0-19.0-2.0-34.0","null","<p style=""color: red"">X</p>","null","feedback","","","","","","","","","","","","","","","","","","",""
"","html-keyboard-response","418","775309","0.0-2.0-19.0-2.0-35.0","null"," ","null","ITI","","","","","","","","","","","","","","","","","","",""
"","categorize-html","419","776815","0.0-2.0-19.0-2.0-36.0","null","<p>R</p>","null","detection","false","false","90","4","","","","","","","","","1","","","","","",""
"","html-keyboard-response","420","776823","0.0-2.0-19.0-2.0-37.0","null","<p style=""color: red"">R</p>","null","feedback","","","","","","","","","","","","","","","","","","",""
"","html-keyboard-response","421","777126","0.0-2.0-19.0-2.0-38.0","null"," ","null","ITI","","","","","","","","","","","","","","","","","","",""
"","categorize-html","422","778641","0.0-2.0-19.0-2.0-39.0","null","<p>X</p>","null","detection","false","false","90","4","","","","","","","","","2","","","","","",""
"","html-keyboard-response","423","778647","0.0-2.0-19.0-2.0-40.0","null","<p style=""color: red"">X</p>","null","feedback","","","","","","","","","","","","","","","","","","",""
"","html-keyboard-response","424","778958","0.0-2.0-19.0-2.0-41.0","null"," ","null","ITI","","","","","","","","","","","","","","","","","","",""
"","categorize-html","425","780479","0.0-2.0-19.0-2.0-42.0","null","<p>R</p>","null","detection","false","false","90","4","","","","","","","","","1","","","","","",""
"","html-keyboard-response","426","780486","0.0-2.0-19.0-2.0-43.0","null","<p style=""color: red"">R</p>","null","feedback","","","","","","","","","","","","","","","","","","",""
"","html-keyboard-response","427","780791","0.0-2.0-19.0-2.0-44.0","null"," ","null","ITI","","","","","","","","","","","","","","","","","","",""
"","html-keyboard-response","428","781723","0.0-2.0-19.0-3.0","927.9149998910725","<p>Great job! You earned 1 point(s) from this task.</p> </p><p>Press the space bar to continue. </p>","32","debrief","","","","","","","","","","","","","","","","","","",""
"","html-slider-response","429","791081","0.0-2.0-20.0-0.0","9353.710000170395","<img src=""./static/img/fractal1.jpg"" width=""250"" height=""250""","","BDM","","","","5","","","","","","76","","43.480551908773265","","","","","","",""
"","html-keyboard-response","430","793253","0.0-2.0-21.0-0.0","2169.624999864027","<p style='font-size':25px> You want <strong> 4.04 </strong> points. </p> <p> The computer offers <strong>1.20</strong> points. </p><p> You will do the following task instead to earn 1 point. </p> <img src=""./static/img/fractal2.png"" width=""250"" height=""250"" location='center'></img><p>[Press the space bar to continue.]</p>","32","","","","","","","","","","","","","","","","","","","",""
"","html-keyboard-response","431","793366","0.0-2.0-23.0-0.0","null","+","null","","","","","","","","","","","","","","","","","","","",""
"","html-keyboard-response","432","795041","0.0-2.0-23.0-1.0-0.0","1673.0100000277162","<p>In this task, you will need to press <strong>K</strong> every time you see the target letter <strong>T</strong>. </p><p>You must respond while the letter is on screen or your answer will not count.</p><p> Pay attention! If you are not at least 80% accurate, you will not earn points for completing this task.</p> <p>Press space to begin.</p>","32","instructions","","","","","","","","","","","","","","","","","","",""
"","categorize-html","433","796553","0.0-2.0-23.0-2.0-0.0","null","<p>X</p>","null","detection","false","false","90","5","","","","","","","","","2","","","","","",""
"","html-keyboard-response","434","796556","0.0-2.0-23.0-2.0-1.0","null","<p style=""color: red"">X</p>","null","feedback","","","","","","","","","","","","","","","","","","",""
"","html-keyboard-response","435","796868","0.0-2.0-23.0-2.0-2.0","null"," ","null","ITI","","","","","","","","","","","","","","","","","","",""
"","categorize-html","436","798376","0.0-2.0-23.0-2.0-3.0","null","<p>X</p>","null","detection","false","false","90","5","","","","","","","","","2","","","","","",""
"","html-keyboard-response","437","798383","0.0-2.0-23.0-2.0-4.0","null","<p style=""color: red"">X</p>","null","feedback","","","","","","","","","","","","","","","","","","",""
"","html-keyboard-response","438","798699","0.0-2.0-23.0-2.0-5.0","null"," ","null","ITI","","","","","","","","","","","","","","","","","","",""
"","categorize-html","439","799168","0.0-2.0-23.0-2.0-6.0","465.5300001613796","<p>T</p>","75","detection","true","true","75","5","","","","","","","","","3","","","","","",""
"","html-keyboard-response","440","800204","0.0-2.0-23.0-2.0-7.0","null","<p style=""color: red"">T</p>","null","feedback","","","","","","","","","","","","","","","","","","",""
"","html-keyboard-response","441","800516","0.0-2.0-23.0-2.0-8.0","null"," ","null","ITI","","","","","","","","","","","","","","","","","","",""
"","categorize-html","442","802026","0.0-2.0-23.0-2.0-9.0","null","<p>X</p>","null","detection","false","false","90","5","","","","","","","","","2","","","","","",""
"","html-keyboard-response","443","802032","0.0-2.0-23.0-2.0-10.0","null","<p style=""color: red"">X</p>","null","feedback","","","","","","","","","","","","","","","","","","",""
"","html-keyboard-response","444","802348","0.0-2.0-23.0-2.0-11.0","null"," ","null","ITI","","","","","","","","","","","","","","","","","","",""
"","categorize-html","445","803856","0.0-2.0-23.0-2.0-12.0","null","<p>R</p>","null","detection","false","false","90","5","","","","","","","","","1","","","","","",""
"","html-keyboard-response","446","803863","0.0-2.0-23.0-2.0-13.0","null","<p style=""color: red"">R</p>","null","feedback","","","","","","","","","","","","","","","","","","",""
"","html-keyboard-response","447","804165","0.0-2.0-23.0-2.0-14.0","null"," ","null","ITI","","","","","","","","","","","","","","","","","","",""
"","categorize-html","448","804561","0.0-2.0-23.0-2.0-15.0","389.0099998097867","<p>T</p>","75","detection","true","true","75","5","","","","","","","","","3","","","","","",""
"","html-keyboard-response","449","805687","0.0-2.0-23.0-2.0-16.0","null","<p style=""color: red"">T</p>","null","feedback","","","","","","","","","","","","","","","","","","",""
"","html-keyboard-response","450","805998","0.0-2.0-23.0-2.0-17.0","null"," ","null","ITI","","","","","","","","","","","","","","","","","","",""
"","categorize-html","451","807507","0.0-2.0-23.0-2.0-18.0","null","<p>E</p>","null","detection","false","false","90","5","","","","","","","","","0","","","","","",""
"","html-keyboard-response","452","807514","0.0-2.0-23.0-2.0-19.0","null","<p style=""color: red"">E</p>","null","feedback","","","","","","","","","","","","","","","","","","",""
"","html-keyboard-response","453","807821","0.0-2.0-23.0-2.0-20.0","null"," ","null","ITI","","","","","","","","","","","","","","","","","","",""
"","categorize-html","454","809329","0.0-2.0-23.0-2.0-21.0","null","<p>R</p>","null","detection","false","false","90","5","","","","","","","","","1","","","","","",""
"","html-keyboard-response","455","809336","0.0-2.0-23.0-2.0-22.0","null","<p style=""color: red"">R</p>","null","feedback","","","","","","","","","","","","","","","","","","",""
"","html-keyboard-response","456","809638","0.0-2.0-23.0-2.0-23.0","null"," ","null","ITI","","","","","","","","","","","","","","","","","","",""
"","categorize-html","457","809994","0.0-2.0-23.0-2.0-24.0","351.7299999948591","<p>T</p>","75","detection","true","true","75","5","","","","","","","","","3","","","","","",""
"","html-keyboard-response","458","811145","0.0-2.0-23.0-2.0-25.0","null","<p style=""color: red"">T</p>","null","feedback","","","","","","","","","","","","","","","","","","",""
"","html-keyboard-response","459","811461","0.0-2.0-23.0-2.0-26.0","null"," ","null","ITI","","","","","","","","","","","","","","","","","","",""
"","categorize-html","460","812982","0.0-2.0-23.0-2.0-27.0","null","<p>R</p>","null","detection","false","false","90","5","","","","","","","","","1","","","","","",""
"","html-keyboard-response","461","812988","0.0-2.0-23.0-2.0-28.0","null","<p style=""color: red"">R</p>","null","feedback","","","","","","","","","","","","","","","","","","",""
"","html-keyboard-response","462","813295","0.0-2.0-23.0-2.0-29.0","null"," ","null","ITI","","","","","","","","","","","","","","","","","","",""
"","categorize-html","463","814806","0.0-2.0-23.0-2.0-30.0","null","<p>E</p>","null","detection","false","false","90","5","","","","","","","","","0","","","","","",""
"","html-keyboard-response","464","814812","0.0-2.0-23.0-2.0-31.0","null","<p style=""color: red"">E</p>","null","feedback","","","","","","","","","","","","","","","","","","",""
"","html-keyboard-response","465","815127","0.0-2.0-23.0-2.0-32.0","null"," ","null","ITI","","","","","","","","","","","","","","","","","","",""
"","categorize-html","466","816636","0.0-2.0-23.0-2.0-33.0","null","<p>X</p>","null","detection","false","false","90","5","","","","","","","","","2","","","","","",""
"","html-keyboard-response","467","816642","0.0-2.0-23.0-2.0-34.0","null","<p style=""color: red"">X</p>","null","feedback","","","","","","","","","","","","","","","","","","",""
"","html-keyboard-response","468","816958","0.0-2.0-23.0-2.0-35.0","null"," ","null","ITI","","","","","","","","","","","","","","","","","","",""
"","categorize-html","469","818468","0.0-2.0-23.0-2.0-36.0","null","<p>E</p>","null","detection","false","false","90","5","","","","","","","","","0","","","","","",""
"","html-keyboard-response","470","818474","0.0-2.0-23.0-2.0-37.0","null","<p style=""color: red"">E</p>","null","feedback","","","","","","","","","","","","","","","","","","",""
"","html-keyboard-response","471","818777","0.0-2.0-23.0-2.0-38.0","null"," ","null","ITI","","","","","","","","","","","","","","","","","","",""
"","categorize-html","472","820295","0.0-2.0-23.0-2.0-39.0","null","<p>X</p>","null","detection","false","false","90","5","","","","","","","","","2","","","","","",""
"","html-keyboard-response","473","820300","0.0-2.0-23.0-2.0-40.0","null","<p style=""color: red"">X</p>","null","feedback","","","","","","","","","","","","","","","","","","",""
"","html-keyboard-response","474","820607","0.0-2.0-23.0-2.0-41.0","null"," ","null","ITI","","","","","","","","","","","","","","","","","","",""
"","categorize-html","475","822129","0.0-2.0-23.0-2.0-42.0","null","<p>R</p>","null","detection","false","false","90","5","","","","","","","","","1","","","","","",""
"","html-keyboard-response","476","822135","0.0-2.0-23.0-2.0-43.0","null","<p style=""color: red"">R</p>","null","feedback","","","","","","","","","","","","","","","","","","",""
"","html-keyboard-response","477","822441","0.0-2.0-23.0-2.0-44.0","null"," ","null","ITI","","","","","","","","","","","","","","","","","","",""
"","html-keyboard-response","478","823332","0.0-2.0-23.0-3.0","887.3349998611957","<p>Great job! You earned 1 point(s) from this task.</p> </p><p>Press the space bar to continue. </p>","32","debrief","","","","","","","","","","","","","","","","","","",""
"","html-slider-response","479","840204","0.0-3.0-0.0-0.0","16868.090000003576","<img src=""./static/img/fractal1.jpg"" width=""250"" height=""250""","","BDM","","","","6","","","","","","24","","90.16804894652581","","","","","","",""
"","html-keyboard-response","480","844257","0.0-3.0-1.0-0.0","4050.7699998561293","<p style='font-size':25px> You want <strong> 1.96 </strong> points. </p> <p> The computer offers <strong>1.12</strong> points. </p><p> You will do the following task instead to earn 1 point. </p> <img src=""./static/img/fractal2.png"" width=""250"" height=""250"" location='center'></img><p>[Press the space bar to continue.]</p>","32","","","","","","","","","","","","","","","","","","","",""
"","html-keyboard-response","481","844364","0.0-3.0-3.0-0.0","null","+","null","","","","","","","","","","","","","","","","","","","",""
"","html-keyboard-response","482","847500","0.0-3.0-3.0-1.0-0.0","3134.48500004597","<p>In this task, you will need to press <strong>K</strong> every time you see the target letter <strong>T</strong>. </p><p>You must respond while the letter is on screen or your answer will not count.</p><p> Pay attention! If you are not at least 80% accurate, you will not earn points for completing this task.</p> <p>Press space to begin.</p>","32","instructions","","","","","","","","","","","","","","","","","","",""
"","categorize-html","483","848094","0.0-3.0-3.0-2.0-0.0","590.5200000852346","<p>T</p>","75","detection","true","true","75","6","","","","","","","","","3","","","","","",""
"","html-keyboard-response","484","849015","0.0-3.0-3.0-2.0-1.0","null","<p style=""color: red"">T</p>","null","feedback","","","","","","","","","","","","","","","","","","",""
"","html-keyboard-response","485","849331","0.0-3.0-3.0-2.0-2.0","null"," ","null","ITI","","","","","","","","","","","","","","","","","","",""
"","categorize-html","486","850841","0.0-3.0-3.0-2.0-3.0","null","<p>X</p>","null","detection","false","false","90","6","","","","","","","","","2","","","","","",""
"","html-keyboard-response","487","850848","0.0-3.0-3.0-2.0-4.0","null","<p style=""color: red"">X</p>","null","feedback","","","","","","","","","","","","","","","","","","",""
"","html-keyboard-response","488","851149","0.0-3.0-3.0-2.0-5.0","null"," ","null","ITI","","","","","","","","","","","","","","","","","","",""
