"success","trial_type","trial_index","time_elapsed","internal_node_id","rt","stimulus","key_press","task","correct","switch","rule","stimnum","prob_switch","correct_key","tasknum","practice","practice_accuracy","number_practice_combines","response","BDMquizgrade","task_displayed","slider_start","responses","question_order","TOT","overall","performance_by_block","points_list","value_list","offer_list","exp_version","n_switch_rule_sides"
"true","fullscreen","0","52654","0.0-0.0","","","","","","","","","","","","","","","","","","","","","","","","","","","",""
"","html-keyboard-response","1","140240","0.0-1.0-0.0-0.0","87581.25500002643","<p>In this experiment, you'll complete up to 12 short rounds of two tasks.</p><p>If you are 80% correct or better during one round of a task, then you pass that round and earn bonus points for it. If you are less than 80% correct, you will not earn any points for that round.</p><p>You can earn 1 to 5 points each round.</p><p>Keep in mind that you should be about 80% accurate for up to 12 rounds.</p><p>At the end of the experiment, the points you earned will be added up and turned into a bonus payment. $$ The more points you earn, the more money you will be paid. $$</p><p>We can tell if you're not paying attention; if you're not, then this experiment will end early and you will earn a smaller payment. $$</p><p>[Press space to continue.]</p>","32","instructions","","","","","","","","","","","","","","","","","","","","","","","",""
"","html-keyboard-response","2","168586","0.0-1.0-1.0-0.0-0.0","28342.554999981076","<p>In this task, you will need to follow different rules depending on the color of the numbers on screen.</p><p style=""color: blue"">If the number is blue, you will need to respond to its magnitude (less than or greater than 5?).</p><p style=""color: red"">If the number is red, you will need to respond to its parity (even or odd?).</p><p>Let's practice responding to these rules, one at a time.</p><p>[Press the space bar to continue.]</p>","32","instructions","","","","","","","","","","","","","","","","","","","","","","","",""
"","html-keyboard-response","3","188844","0.0-1.0-1.0-1.0-0.0-0.0","20256.324999965727","<p>Let's practice following the magnitude (less than or greater than 5?) rule.</p><p>On the next screen, please respond to the magnitude (less than or greater than 5?) of the numbers on screen.</p><p>Press <strong>S</strong> if the number is smaller.</p><p>Press <strong>F</strong> if the number is larger.</p><p>You will have 1500 milliseconds to respond to each number. Try to respond as quickly as you can.</p><p>[Press the space bar to continue.]</p>","32","instructions","","","","","","","","","","","","","","","","","","","","","","","",""
"","categorize-html","4","190055","0.0-1.0-1.0-1.0-1.0-0.0","1206.2000000150874","<p style=""color: blue"">6</p>","70","n-switch","true","false","1","4","0","70","-1","true","","","","","","","","","","","","","","","",""
"","html-keyboard-response","5","190807","0.0-1.0-1.0-1.0-1.0-1.0","null","Correct!","null","feedback","","","","","","","","","","","","","","","","","","","","","","","",""
"","categorize-html","6","191539","0.0-1.0-1.0-1.0-1.0-2.0","728.6800000001676","<p style=""color: blue"">3</p>","83","n-switch","true","false","1","2","0","83","-1","true","","","","","","","","","","","","","","","",""
"","html-keyboard-response","7","192291","0.0-1.0-1.0-1.0-1.0-3.0","null","Correct!","null","feedback","","","","","","","","","","","","","","","","","","","","","","","",""
"","categorize-html","8","192910","0.0-1.0-1.0-1.0-1.0-4.0","616.4100000169128","<p style=""color: blue"">9</p>","70","n-switch","true","false","1","7","0","70","-1","true","","","","","","","","","","","","","","","",""
"","html-keyboard-response","9","193662","0.0-1.0-1.0-1.0-1.0-5.0","null","Correct!","null","feedback","","","","","","","","","","","","","","","","","","","","","","","",""
"","categorize-html","10","194036","0.0-1.0-1.0-1.0-1.0-6.0","370.62000000150874","<p style=""color: blue"">9</p>","70","n-switch","true","false","1","7","0","70","-1","true","","","","","","","","","","","","","","","",""
"","html-keyboard-response","11","194788","0.0-1.0-1.0-1.0-1.0-7.0","null","Correct!","null","feedback","","","","","","","","","","","","","","","","","","","","","","","",""
"","categorize-html","12","195250","0.0-1.0-1.0-1.0-1.0-8.0","457.98000000650063","<p style=""color: blue"">4</p>","83","n-switch","true","false","1","3","0","83","-1","true","","","","","","","","","","","","","","","",""
"","html-keyboard-response","13","196002","0.0-1.0-1.0-1.0-1.0-9.0","null","Correct!","null","feedback","","","","","","","","","","","","","","","","","","","","","","","",""
"","categorize-html","14","196569","0.0-1.0-1.0-1.0-1.0-10.0","564.1300000133924","<p style=""color: blue"">7</p>","70","n-switch","true","false","1","5","0","70","-1","true","","","","","","","","","","","","","","","",""
"","html-keyboard-response","15","197321","0.0-1.0-1.0-1.0-1.0-11.0","null","Correct!","null","feedback","","","","","","","","","","","","","","","","","","","","","","","",""
"","categorize-html","16","197789","0.0-1.0-1.0-1.0-1.0-12.0","464.51999997952953","<p style=""color: blue"">1</p>","83","n-switch","true","false","1","0","0","83","-1","true","","","","","","","","","","","","","","","",""
"","html-keyboard-response","17","198541","0.0-1.0-1.0-1.0-1.0-13.0","null","Correct!","null","feedback","","","","","","","","","","","","","","","","","","","","","","","",""
"","categorize-html","18","198981","0.0-1.0-1.0-1.0-1.0-14.0","436.62499997299165","<p style=""color: blue"">8</p>","70","n-switch","true","false","1","6","0","70","-1","true","","","","","","","","","","","","","","","",""
"","html-keyboard-response","19","199732","0.0-1.0-1.0-1.0-1.0-15.0","null","Correct!","null","feedback","","","","","","","","","","","","","","","","","","","","","","","",""
"","html-keyboard-response","20","204237","0.0-1.0-1.0-1.0-2.0","4497.349999961443","<p>You were <strong>100% accurate</strong>.</p><p>You will need to be at least 80% accurate to earn points in the real experiment.</p><p>In the real experiment, you will not receive the same feedback as during practice.</p><p>Press the space bar to continue. </p>","32","debrief","","","","","","","","true","100","","","","","","","","","","","","","","",""
"","html-keyboard-response","21","234239","0.0-1.0-1.0-2.0-0.0-0.0","null","<p>Let's practice following the parity (even or odd?) rule.</p><p>On the next screen, please respond to the parity (even or odd?) of the numbers on screen.</p><p>Press <strong>H</strong> if the number is even.</p><p>Press <strong>K</strong> if the number is odd.</p><p>You will have 1500 milliseconds to respond to each number. Try to respond as quickly as you can.</p><p>[Press the space bar to continue.]</p>","null","instructions","","","","","","","","","","","","","","","","","","","","","","","",""
"","categorize-html","22","235745","0.0-1.0-1.0-2.0-1.0-0.0","null","<p style=""color: red"">3</p>","null","n-switch","false","false","2","2","0","75","-1","true","","","","","","","","","","","","","","","",""
"","html-keyboard-response","23","236498","0.0-1.0-1.0-2.0-1.0-1.0","null","Please respond in time!","null","feedback","","","","","","","","","","","","","","","","","","","","","","","",""
"","categorize-html","24","238005","0.0-1.0-1.0-2.0-1.0-2.0","null","<p style=""color: red"">7</p>","null","n-switch","false","false","2","5","0","75","-1","true","","","","","","","","","","","","","","","",""
"","html-keyboard-response","25","238758","0.0-1.0-1.0-2.0-1.0-3.0","null","Please respond in time!","null","feedback","","","","","","","","","","","","","","","","","","","","","","","",""
"","categorize-html","26","240266","0.0-1.0-1.0-2.0-1.0-4.0","null","<p style=""color: red"">4</p>","null","n-switch","false","false","2","3","0","72","-1","true","","","","","","","","","","","","","","","",""
"","html-keyboard-response","27","241019","0.0-1.0-1.0-2.0-1.0-5.0","null","Please respond in time!","null","feedback","","","","","","","","","","","","","","","","","","","","","","","",""
"","categorize-html","28","241997","0.0-1.0-1.0-2.0-1.0-6.0","974.4899999932386","<p style=""color: red"">6</p>","74","n-switch","false","false","2","4","0","72","-1","true","","","","","","","","","","","","","","","",""
"","html-keyboard-response","29","242749","0.0-1.0-1.0-2.0-1.0-7.0","null","Please press H or K.","null","feedback","","","","","","","","","","","","","","","","","","","","","","","",""
"","categorize-html","30","243416","0.0-1.0-1.0-2.0-1.0-8.0","662.624999997206","<p style=""color: red"">1</p>","76","n-switch","false","false","2","0","0","75","-1","true","","","","","","","","","","","","","","","",""
"","html-keyboard-response","31","244169","0.0-1.0-1.0-2.0-1.0-9.0","null","Please press H or K.","null","feedback","","","","","","","","","","","","","","","","","","","","","","","",""
"","categorize-html","32","244711","0.0-1.0-1.0-2.0-1.0-10.0","538.7299999711104","<p style=""color: red"">3</p>","74","n-switch","false","false","2","2","0","75","-1","true","","","","","","","","","","","","","","","",""
"","html-keyboard-response","33","245464","0.0-1.0-1.0-2.0-1.0-11.0","null","Please press H or K.","null","feedback","","","","","","","","","","","","","","","","","","","","","","","",""
"","categorize-html","34","246209","0.0-1.0-1.0-2.0-1.0-12.0","742.0699999784119","<p style=""color: red"">6</p>","74","n-switch","false","false","2","4","0","72","-1","true","","","","","","","","","","","","","","","",""
"","html-keyboard-response","35","246962","0.0-1.0-1.0-2.0-1.0-13.0","null","Please press H or K.","null","feedback","","","","","","","","","","","","","","","","","","","","","","","",""
"","categorize-html","36","247705","0.0-1.0-1.0-2.0-1.0-14.0","738.5349999531172","<p style=""color: red"">7</p>","76","n-switch","false","false","2","5","0","75","-1","true","","","","","","","","","","","","","","","",""
"","html-keyboard-response","37","248457","0.0-1.0-1.0-2.0-1.0-15.0","null","Please press H or K.","null","feedback","","","","","","","","","","","","","","","","","","","","","","","",""
"","html-keyboard-response","38","255199","0.0-1.0-1.0-2.0-2.0","6740.129999991041","<p>You were <strong>0% accurate</strong>.</p><p>You will need to be at least 80% accurate to earn points in the real experiment.</p><p>In the real experiment, you will not receive the same feedback as during practice.</p><p>Press the space bar to continue. </p>","32","debrief","","","","","","","","true","0","","","","","","","","","","","","","","",""
"","html-keyboard-response","39","266895","0.0-1.0-1.0-3.0-0.0-0.0","11693.609999958426","<img src=""./static/img/fractal4.png"" width=""250"" height=""250""","32","","","","","","","","","","","","","","","","","","","","","","","","",""
"","html-keyboard-response","40","288801","0.0-1.0-1.0-3.0-1.0-0.0","21903.980000002775","<p>Now, let's practice responding to both rules.</p><p>You will be responding to both rules, one at a time, depending on the color of the number on screen.</p><p>You will use four different keys, <strong>S, F, H, and K</strong> to respond.</p><p style=""color: blue"">If the number is blue, you will need to respond to its magnitude (less than or greater than 5?).</p><p style=""color: red"">If the number is red, you will need to respond to its parity (even or odd?).</p><p>Press the space bar to practice this task.</p>","32","instructions","","","","","","","","","","","","","","","","","","","","","","","",""
"","categorize-html","41","290305","0.0-1.0-1.0-3.0-2.0-0.0","null","<p style=""color: blue"">9</p>","null","n-switch","false","false","1","7","0.9","70","-1","true","","","","","","","","","","","","","","","",""
"","html-keyboard-response","42","291059","0.0-1.0-1.0-3.0-2.0-1.0","null","Please respond in time!","null","feedback","","","","","","","","","","","","","","","","","","","","","","","",""
"","categorize-html","43","292164","0.0-1.0-1.0-3.0-2.0-2.0","1101.4999999897555","<p style=""color: blue"">3</p>","65","n-switch","false","false","1","2","0.9","83","-1","true","","","","","","","","","","","","","","","",""
"","html-keyboard-response","44","292917","0.0-1.0-1.0-3.0-2.0-3.0","null","Please press S, F, H or K.","null","feedback","","","","","","","","","","","","","","","","","","","","","","","",""
"","categorize-html","45","294082","0.0-1.0-1.0-3.0-2.0-4.0","1161.5299999830313","<p style=""color: blue"">1</p>","68","n-switch","false","false","1","0","0.9","83","-1","true","","","","","","","","","","","","","","","",""
"","html-keyboard-response","46","294834","0.0-1.0-1.0-3.0-2.0-5.0","null","Please press S, F, H or K.","null","feedback","","","","","","","","","","","","","","","","","","","","","","","",""
"","categorize-html","47","295303","0.0-1.0-1.0-3.0-2.0-6.0","465.8549999585375","<p style=""color: blue"">2</p>","65","n-switch","false","false","1","1","0.9","83","-1","true","","","","","","","","","","","","","","","",""
"","html-keyboard-response","48","296057","0.0-1.0-1.0-3.0-2.0-7.0","null","Please press S, F, H or K.","null","feedback","","","","","","","","","","","","","","","","","","","","","","","",""
"","categorize-html","49","297294","0.0-1.0-1.0-3.0-2.0-8.0","1234.1999999480322","<p style=""color: red"">3</p>","75","n-switch","true","true","2","2","0.9","75","-1","true","","","","","","","","","","","","","","","",""
"","html-keyboard-response","50","298047","0.0-1.0-1.0-3.0-2.0-9.0","null","Correct!","null","feedback","","","","","","","","","","","","","","","","","","","","","","","",""
"","categorize-html","51","299552","0.0-1.0-1.0-3.0-2.0-10.0","null","<p style=""color: blue"">6</p>","null","n-switch","false","true","1","4","0.9","70","-1","true","","","","","","","","","","","","","","","",""
"","html-keyboard-response","52","300305","0.0-1.0-1.0-3.0-2.0-11.0","207.69000001018867","Please respond in time!","68","feedback","","","","","","","","","","","","","","","","","","","","","","","",""
"","categorize-html","53","301812","0.0-1.0-1.0-3.0-2.0-12.0","null","<p style=""color: red"">1</p>","null","n-switch","false","true","2","0","0.9","75","-1","true","","","","","","","","","","","","","","","",""
"","html-keyboard-response","54","302566","0.0-1.0-1.0-3.0-2.0-13.0","44.40999997314066","Please respond in time!","72","feedback","","","","","","","","","","","","","","","","","","","","","","","",""
"","categorize-html","55","303558","0.0-1.0-1.0-3.0-2.0-14.0","987.8950000274926","<p style=""color: red"">2</p>","75","n-switch","false","false","2","1","0.9","72","-1","true","","","","","","","","","","","","","","","",""
"","html-keyboard-response","56","304311","0.0-1.0-1.0-3.0-2.0-15.0","null","Incorrect!","null","feedback","","","","","","","","","","","","","","","","","","","","","","","",""
"","categorize-html","57","305429","0.0-1.0-1.0-3.0-2.0-16.0","1114.270000020042","<p style=""color: red"">6</p>","72","n-switch","true","false","2","4","0.9","72","-1","true","","","","","","","","","","","","","","","",""
"","html-keyboard-response","58","306182","0.0-1.0-1.0-3.0-2.0-17.0","null","Correct!","null","feedback","","","","","","","","","","","","","","","","","","","","","","","",""
"","categorize-html","59","307686","0.0-1.0-1.0-3.0-2.0-18.0","null","<p style=""color: blue"">7</p>","null","n-switch","false","true","1","5","0.9","70","-1","true","","","","","","","","","","","","","","","",""
"","html-keyboard-response","60","308439","0.0-1.0-1.0-3.0-2.0-19.0","171.90999997546896","Please respond in time!","68","feedback","","","","","","","","","","","","","","","","","","","","","","","",""
"","html-keyboard-response","61","313313","0.0-1.0-1.0-3.0-3.0","4871.629999950528","<p>Your accuracy was <strong>20%</strong>.</p><p>You will need to be at least 80% accurate to earn points in the real experiment.</p><p>In the real experiment, you will not receive the same feedback as during practice.</p><p>Press the space bar to continue. </p>","32","debrief","","","","","","","","true","20","","","","","","","","","","","","","","",""
"","html-keyboard-response","62","315027","0.0-1.0-1.0-4.0-0.0","1710.8250000164844","<p> You were 20% accurate.</p><p>You are not at 80% accuracy yet.</p><p>Let's try this task again.</p><p>[Press the space bar to continue.]</p>","32","","","","","","","","","","20","","","","","","","","","","","","","","",""
"","html-keyboard-response","63","323700","0.0-1.0-1.0-5.0-0.0","8671.384999994189","<p>You will get 3 more tries to get to 80% accuracy on this task.</p><p>Don't worry, most subjects need a few rounds of practice on this task.</p><p>If the feedback is more distracting than helpful, try your best to just ignore it.</p><p>[Press space bar to try again.]</p>","32","","","","","","","","","","","1","","","","","","","","","","","","","",""
"","html-keyboard-response","64","329088","0.0-1.0-1.0-6.0-0.0-0.0","5384.84499999322","<img src=""./static/img/fractal4.png"" width=""250"" height=""250""","32","","","","","","","","","","","","","","","","","","","","","","","","",""
"","html-keyboard-response","65","331508","0.0-1.0-1.0-6.0-1.0-0.0","2417.9800000274554","<p>Now, let's practice responding to both rules.</p><p>You will be responding to both rules, one at a time, depending on the color of the number on screen.</p><p>You will use four different keys, <strong>S, F, H, and K</strong> to respond.</p><p style=""color: blue"">If the number is blue, you will need to respond to its magnitude (less than or greater than 5?).</p><p style=""color: red"">If the number is red, you will need to respond to its parity (even or odd?).</p><p>Press the space bar to practice this task.</p>","32","instructions","","","","","","","","","","","","","","","","","","","","","","","",""
"","categorize-html","66","332503","0.0-1.0-1.0-6.0-2.0-0.0","991.5799999726005","<p style=""color: blue"">4</p>","68","n-switch","false","true","1","3","0.9","83","-1","true","","","","","","","","","","","","","","","",""
"","html-keyboard-response","67","333256","0.0-1.0-1.0-6.0-2.0-1.0","null","Please press S, F, H or K.","null","feedback","","","","","","","","","","","","","","","","","","","","","","","",""
"","categorize-html","68","334175","0.0-1.0-1.0-6.0-2.0-2.0","915.4899999848567","<p style=""color: blue"">7</p>","68","n-switch","false","false","1","5","0.9","70","-1","true","","","","","","","","","","","","","","","",""
"","html-keyboard-response","69","334928","0.0-1.0-1.0-6.0-2.0-3.0","null","Please press S, F, H or K.","null","feedback","","","","","","","","","","","","","","","","","","","","","","","",""
"","categorize-html","70","335383","0.0-1.0-1.0-6.0-2.0-4.0","451.43000001553446","<p style=""color: blue"">4</p>","65","n-switch","false","false","1","3","0.9","83","-1","true","","","","","","","","","","","","","","","",""
"","html-keyboard-response","71","336136","0.0-1.0-1.0-6.0-2.0-5.0","null","Please press S, F, H or K.","null","feedback","","","","","","","","","","","","","","","","","","","","","","","",""
"","categorize-html","72","336706","0.0-1.0-1.0-6.0-2.0-6.0","566.1700000055134","<p style=""color: blue"">7</p>","68","n-switch","false","false","1","5","0.9","70","-1","true","","","","","","","","","","","","","","","",""
"","html-keyboard-response","73","337458","0.0-1.0-1.0-6.0-2.0-7.0","null","Please press S, F, H or K.","null","feedback","","","","","","","","","","","","","","","","","","","","","","","",""
"","categorize-html","74","338006","0.0-1.0-1.0-6.0-2.0-8.0","544.3300000042655","<p style=""color: blue"">7</p>","68","n-switch","false","false","1","5","0.9","70","-1","true","","","","","","","","","","","","","","","",""
"","html-keyboard-response","75","338759","0.0-1.0-1.0-6.0-2.0-9.0","null","Please press S, F, H or K.","null","feedback","","","","","","","","","","","","","","","","","","","","","","","",""
"","categorize-html","76","340263","0.0-1.0-1.0-6.0-2.0-10.0","null","<p style=""color: red"">3</p>","null","n-switch","false","true","2","2","0.9","75","-1","true","","","","","","","","","","","","","","","",""
"","html-keyboard-response","77","341017","0.0-1.0-1.0-6.0-2.0-11.0","null","Please respond in time!","null","feedback","","","","","","","","","","","","","","","","","","","","","","","",""
"","categorize-html","78","342056","0.0-1.0-1.0-6.0-2.0-12.0","1035.730000003241","<p style=""color: red"">6</p>","72","n-switch","true","false","2","4","0.9","72","-1","true","","","","","","","","","","","","","","","",""
"","html-keyboard-response","79","342811","0.0-1.0-1.0-6.0-2.0-13.0","null","Correct!","null","feedback","","","","","","","","","","","","","","","","","","","","","","","",""
"","categorize-html","80","343496","0.0-1.0-1.0-6.0-2.0-14.0","681.9799999939278","<p style=""color: red"">8</p>","72","n-switch","true","false","2","6","0.9","72","-1","true","","","","","","","","","","","","","","","",""
"","html-keyboard-response","81","344249","0.0-1.0-1.0-6.0-2.0-15.0","null","Correct!","null","feedback","","","","","","","","","","","","","","","","","","","","","","","",""
"","categorize-html","82","345205","0.0-1.0-1.0-6.0-2.0-16.0","952.5099999736995","<p style=""color: blue"">8</p>","70","n-switch","true","true","1","6","0.9","70","-1","true","","","","","","","","","","","","","","","",""
"","html-keyboard-response","83","345962","0.0-1.0-1.0-6.0-2.0-17.0","null","Correct!","null","feedback","","","","","","","","","","","","","","","","","","","","","","","",""
"","categorize-html","84","346580","0.0-1.0-1.0-6.0-2.0-18.0","611.0900000203401","<p style=""color: blue"">7</p>","70","n-switch","true","false","1","5","0.9","70","-1","true","","","","","","","","","","","","","","","",""
"","html-keyboard-response","85","347333","0.0-1.0-1.0-6.0-2.0-19.0","null","Correct!","null","feedback","","","","","","","","","","","","","","","","","","","","","","","",""
"","html-keyboard-response","86","348872","0.0-1.0-1.0-6.0-3.0","1537.6350000151433","<p>Your accuracy was <strong>40%</strong>.</p><p>You will need to be at least 80% accurate to earn points in the real experiment.</p><p>In the real experiment, you will not receive the same feedback as during practice.</p><p>Press the space bar to continue. </p>","32","debrief","","","","","","","","true","40","","","","","","","","","","","","","","",""
"","html-keyboard-response","87","354115","0.0-1.0-1.0-7.0-0.0","5240.110000013374","<p> You were 40% accurate.</p><p>You are not at 80% accuracy yet.</p><p>Let's try this task again.</p><p>[Press the space bar to continue.]</p>","32","","","","","","","","","","40","","","","","","","","","","","","","","",""
"","html-keyboard-response","88","355517","0.0-1.0-1.0-8.0-0.0","1400.8599999942817","<p>You will get 2 more tries to get to 80% accuracy on this task.</p><p>Don't worry, most subjects need a few rounds of practice on this task.</p><p>If the feedback is more distracting than helpful, try your best to just ignore it.</p><p>[Press space bar to try again.]</p>","32","","","","","","","","","","","2","","","","","","","","","","","","","",""
"","html-keyboard-response","89","356275","0.0-1.0-1.0-9.0-0.0-0.0","755.9150000452064","<img src=""./static/img/fractal4.png"" width=""250"" height=""250""","32","","","","","","","","","","","","","","","","","","","","","","","","",""
"","html-keyboard-response","90","357039","0.0-1.0-1.0-9.0-1.0-0.0","762.2049999772571","<p>Now, let's practice responding to both rules.</p><p>You will be responding to both rules, one at a time, depending on the color of the number on screen.</p><p>You will use four different keys, <strong>S, F, H, and K</strong> to respond.</p><p style=""color: blue"">If the number is blue, you will need to respond to its magnitude (less than or greater than 5?).</p><p style=""color: red"">If the number is red, you will need to respond to its parity (even or odd?).</p><p>Press the space bar to practice this task.</p>","32","instructions","","","","","","","","","","","","","","","","","","","","","","","",""
"","categorize-html","91","358180","0.0-1.0-1.0-9.0-2.0-0.0","1136.7700000409968","<p style=""color: blue"">1</p>","83","n-switch","true","false","1","0","0.9","83","-1","true","","","","","","","","","","","","","","","",""
"","html-keyboard-response","92","358933","0.0-1.0-1.0-9.0-2.0-1.0","null","Correct!","null","feedback","","","","","","","","","","","","","","","","","","","","","","","",""
"","categorize-html","93","359845","0.0-1.0-1.0-9.0-2.0-2.0","908.579999988433","<p style=""color: red"">4</p>","72","n-switch","true","true","2","3","0.9","72","-1","true","","","","","","","","","","","","","","","",""
"","html-keyboard-response","94","360599","0.0-1.0-1.0-9.0-2.0-3.0","null","Correct!","null","feedback","","","","","","","","","","","","","","","","","","","","","","","",""
"","categorize-html","95","361394","0.0-1.0-1.0-9.0-2.0-4.0","791.7599999927916","<p style=""color: red"">7</p>","75","n-switch","true","false","2","5","0.9","75","-1","true","","","","","","","","","","","","","","","",""
"","html-keyboard-response","96","362147","0.0-1.0-1.0-9.0-2.0-5.0","null","Correct!","null","feedback","","","","","","","","","","","","","","","","","","","","","","","",""
"","categorize-html","97","363070","0.0-1.0-1.0-9.0-2.0-6.0","919.324999966193","<p style=""color: blue"">2</p>","83","n-switch","true","true","1","1","0.9","83","-1","true","","","","","","","","","","","","","","","",""
"","html-keyboard-response","98","363823","0.0-1.0-1.0-9.0-2.0-7.0","null","Correct!","null","feedback","","","","","","","","","","","","","","","","","","","","","","","",""
"","categorize-html","99","364636","0.0-1.0-1.0-9.0-2.0-8.0","810.1049999822862","<p style=""color: red"">3</p>","72","n-switch","false","true","2","2","0.9","75","-1","true","","","","","","","","","","","","","","","",""
"","html-keyboard-response","100","365390","0.0-1.0-1.0-9.0-2.0-9.0","null","Incorrect!","null","feedback","","","","","","","","","","","","","","","","","","","","","","","",""
"","categorize-html","101","366297","0.0-1.0-1.0-9.0-2.0-10.0","903.4850000170991","<p style=""color: red"">7</p>","75","n-switch","true","false","2","5","0.9","75","-1","true","","","","","","","","","","","","","","","",""
"","html-keyboard-response","102","367050","0.0-1.0-1.0-9.0-2.0-11.0","null","Correct!","null","feedback","","","","","","","","","","","","","","","","","","","","","","","",""
"","categorize-html","103","367587","0.0-1.0-1.0-9.0-2.0-12.0","533.2599999965169","<p style=""color: red"">9</p>","75","n-switch","true","false","2","7","0.9","75","-1","true","","","","","","","","","","","","","","","",""
"","html-keyboard-response","104","368339","0.0-1.0-1.0-9.0-2.0-13.0","null","Correct!","null","feedback","","","","","","","","","","","","","","","","","","","","","","","",""
"","categorize-html","105","368786","0.0-1.0-1.0-9.0-2.0-14.0","442.35999998636544","<p style=""color: red"">7</p>","75","n-switch","true","false","2","5","0.9","75","-1","true","","","","","","","","","","","","","","","",""
"","html-keyboard-response","106","369538","0.0-1.0-1.0-9.0-2.0-15.0","null","Correct!","null","feedback","","","","","","","","","","","","","","","","","","","","","","","",""
"","categorize-html","107","370458","0.0-1.0-1.0-9.0-2.0-16.0","916.2650000071153","<p style=""color: blue"">4</p>","70","n-switch","false","true","1","3","0.9","83","-1","true","","","","","","","","","","","","","","","",""
"","html-keyboard-response","108","371211","0.0-1.0-1.0-9.0-2.0-17.0","null","Incorrect!","null","feedback","","","","","","","","","","","","","","","","","","","","","","","",""
"","categorize-html","109","372104","0.0-1.0-1.0-9.0-2.0-18.0","890.0900000007823","<p style=""color: blue"">4</p>","83","n-switch","true","false","1","3","0.9","83","-1","true","","","","","","","","","","","","","","","",""
"","html-keyboard-response","110","372856","0.0-1.0-1.0-9.0-2.0-19.0","null","Correct!","null","feedback","","","","","","","","","","","","","","","","","","","","","","","",""
"","html-keyboard-response","111","374093","0.0-1.0-1.0-9.0-3.0","1234.6249999827705","<p>Your accuracy was <strong>80%</strong>.</p><p>You will need to be at least 80% accurate to earn points in the real experiment.</p><p>In the real experiment, you will not receive the same feedback as during practice.</p><p>Press the space bar to continue. </p>","32","debrief","","","","","","","","true","80","","","","","","","","","","","","","","",""
"","html-keyboard-response","112","377294","0.0-1.0-1.0-13.0-0.0","3198.904999997467","<p>Good job! You have reached 80% accuracy on this practice task. We will now explain how the payment process for this experiment will work.</p><p>[Press the space bar to continue.]</p>","32","debrief","","","","","","","","","","","","","","","","","","","","","","","",""
"","html-keyboard-response","113","413162","0.0-1.0-2.0-0.0-0.0","35865.59500003932","<p>Please read these instructions carefully, as you will be tested on your understanding of them.</p><p>Before each round begins, you will be asked how many points is a fair wage to be at least 80% accurate at one of the tasks you just practiced.</p><p>We want you to tell us truthfully how many points is a fair wage, and so we are using a payment process where <strong>telling the truth is the best strategy.</strong></p><p>This means that <strong>you have some control over what you will be paid</strong> at the end of the experiment.</p><p>Whenever given a choice, <strong> the best thing you can do is to always ask for what you consider to be a fair wage for at least 80% accuracy on the task.</strong></p><p>[Press the space bar to continue.]</p>","32","","","","","","","","","","","","","","","","","","","","","","","","",""
"","html-keyboard-response","114","431330","0.0-1.0-2.0-1.0-0.0","18165.39499995997","<p>What do we mean by ""fair wage""?</p><p>When you get hired to complete some work, you may ask for more or less payment based on how much you would enjoy doing that work.</p><p>For example, you might dislike mowing the lawn more than watering the garden, and may ask for more in return for mowing the lawn.</p><p>A fair wage for you is the amount of points you think it would be fair for you to receive in exchange for your completion of the task.</p><p>While you won't get paid exactly what you ask for, the best strategy is to ask for what you truly believe is a fair wage for you.</p><p>We're not going to get into the exact reasons why until the end of the experiment.</p><p>[Press the space bar to continue.]</p>","32","","","","","","","","","","","","","","","","","","","","","","","","",""
"","html-keyboard-response","115","496870","0.0-1.0-2.0-2.0-0.0","65537.7950000111","<p>In short, once you report your fair wage, the computer will present you with a <strong> random offer.</strong></p><p>If you ask for fewer points than the computer offers you, then you will complete the task and be given the points the computer offered.</p><p>Say you ask for 3 points and the computer offers 4, then if you pass the task with at least 80% accuracy, you will be given 4 points.</p><p>If you ask for more points than the computer offers you, then you will do a different task on that round. The alternate task is worth <strong>1 point.</strong></p><p>For example, if you ask for 5 points and the computer offers 4 points, then you will do something else and be given 1 point.</p><p>There is no way to game the payment system. You will either get the computer's random point offer, or 1 point for an alternative task.</p><p>[Press the space bar to continue.]</p>","32","","","","","","","","","","","","","","","","","","","","","","","","",""
"","html-slider-response","116","521900","0.0-1.0-2.0-3.0-0.0-0.0","25024.425000010524","<img src=""./static/img/fractal5.jpg"" width=""250"" height=""250""","","instructs","","","","","","","","","","","48","","","","","","","","","","","","",""
"","html-keyboard-response","117","534541","0.0-1.0-2.0-3.0-1.0-0.0","12638.7349999859","<p>You asked for 2.92 points.</p><p>The computer offered 4.88 points.</p><p>Because the computer's offer is larger, you would move onto the pictured task and, if you achieved 80% accuracy on this task, you would be given 4.88 points at the end.</p><p>Press the space bar to continue.</p>","32","","","","","","","","","","","","","","","","","","","","","","","","",""
"","html-slider-response","118","539678","0.0-1.0-2.0-3.0-2.0-0.0","5132.830000016838","<img src=""./static/img/fractal5.jpg"" width=""250"" height=""250""","","instructs","","","","","","","","","","","100","","","","","","","","","","","","",""
"","html-keyboard-response","119","550651","0.0-1.0-2.0-3.0-3.0-0.0","10970.74999997858","<p>You asked for 5.00 points.</p><p>The computer offered 1.24 points.</p><p>Because the computer's offer is smaller, you would skip the pictured task and, if you achieved 80% accuracy on an alternate task, you would be given 1 point at the end.</p><p>Press the space bar to continue.</p>","32","","","","","","","","","","","","","","","","","","","","","","","","",""
"","html-keyboard-response","120","571961","0.0-1.0-2.0-4.0-0.0","21307.93499998981","<p><strong> Your best strategy is to always ask for what you believe is a fair wage for hitting at least 80% accuracy on 1 round of a task.</strong></p><p>We will now quiz you on the instructions you've just read. If you fail this quiz, you cannot participate in this experiment.</p><p>Press R if you'd like to read these instructions again.</p><p>Press the space bar if you'd like to move on to the quiz.</p>","32","","","","","","","","","","","","","","","","","","","","","","","","",""
"","categorize-html","121","585653","0.0-1.0-2.0-6.0-0.0","11687.25000001723","<p'font-size':15px>[Question 1 of 6]</p><p'font-size':25px>[Press A or B to indicate your answer.]</p><p'font-size':25px>Imagine you think a true fair wage is 2 points. Which amount should you ask for?</p><p 'font-size':25px> A. 4</p><p 'font-size':25px> B. 2</p>","66","quiz","true","","","","","","","","","","","","","","","","","","","","","","",""
"","categorize-html","122","599534","0.0-1.0-2.0-6.0-0.1","11870.90999999782","<p'font-size':15px>[Question 2 of 6]</p><p'font-size':25px>[Press A or B to indicate your answer.]</p><p><img src='./static/img/offer_big.png'></p><p'font-size':25px>What happens when you ask for <strong>more</strong> points than the computer offers?</p><p>A. You will start the pictured task, and get the points the computer offered if you pass that round.</p><p 'font-size':25px> B. You will start a different task and be given 1 point if you pass that round.</p>","66","quiz","true","","","","","","","","","","","","","","","","","","","","","","",""
"","categorize-html","123","614268","0.0-1.0-2.0-6.0-0.2","12728.83500001626","<p'font-size':15px>[Question 3 of 6]</p><p'font-size':25px>[Press A or B to indicate your answer.]</p><p'font-size':25px>Under which of the following two conditions will you do the pictured task?</p><p>A. When you ask for 2 points, and the computer randomly offers 3 points.</p><p 'font-size':25px> B. When you ask for 2 points, and the computer randomly offers 1 point.</p>","65","quiz","true","","","","","","","","","","","","","","","","","","","","","","",""
"","categorize-html","124","639199","0.0-1.0-2.0-6.0-0.3","22923.660000029486","<p'font-size':15px>[Question 4 of 6]</p><p'font-size':25px>[Press A or B to indicate your answer.]</p><p><img src='./static/img/offer_small.png'></p><p'font-size':25px>What happens when you ask for <strong>fewer</strong> points than the computer offers?</p><p>A. You will start the task, and get the points the computer offered if you pass that round.</p><p 'font-size':25px> B. You will start a different task and be given 1 point if you pass that round.</p>","65","quiz","true","","","","","","","","","","","","","","","","","","","","","","",""
"","categorize-html","125","652753","0.0-1.0-2.0-6.0-0.4","11537.884999997914","<p'font-size':15px>[Question 5 of 6]</p><p'font-size':25px>[Press A or B to indicate your answer.]</p><p'font-size':25px>Under which of the following two conditions will you <strong>not</strong> do the pictured task?</p><p>A. When you ask for 3 points, and the computer randomly offers 2 points.</p><p 'font-size':25px> B. When you ask for 3 points, and the computer randomly offers 4 points.</p>","65","quiz","true","","","","","","","","","","","","","","","","","","","","","","",""
"","categorize-html","126","667050","0.0-1.0-2.0-6.0-0.5","12291.949999984354","<p'font-size':15px>[Question 6 of 6]</p><p'font-size':25px>[Press A or B to indicate your answer.]</p><p'font-size':25px>Which is the correct strategy for asking for points?</p><p>A. Ask for as many points as possible.</p><p 'font-size':25px> B. Tell the truth about what is a fair wage for you.</p>","66","quiz","true","","","","","","","","","","","","","","","","","","","","","","",""
"","html-keyboard-response","127","669804","0.0-1.0-2.0-7.0-0.0","2751.924999989569","<p>Great job! We will now begin the real experiment.</p><p>[Press the space bar to continue.]</p>","32","BDMquiz","","","","","","","","","","","","100","","","","","","","","","","","",""
"","html-keyboard-response","128","677285","0.0-1.0-3.0-0.0","7479.194999963511","<p>The real experiment will now start. </p><p>For each round of the experiment, you will be asked how many points you would like to earn to complete a task.</p><p>If you ask for more points than a randomly generated number, you will not complete that task. </p><p>Instead, you will complete a different task and earn 1 point.</p><p>At the end of the experiment, the points you earn will be counted and turned into a bonus payment. $$</p><p>[Press the space bar to continue.]</p>","32","instructions","","","","","","","","","","","","","","","","","","","","","","","",""
"","html-keyboard-response","129","686958","0.0-1.0-4.0-0.0","9671.340000000782","<p>Pay attention! If you are not at least 80% accurate, you will not earn points for completing each task.</p><p>You will not be getting the same amount of feedback on your performance in the real experiment.</p><p>If you press a button, the stimulus on screen will change color to show you that the computer registered your response.</p><p>At the end of the experiment, we'll ask you to complete some optional survey questions.</p><p>If we can tell that you are not paying attention (not accurate enough or not responding quickly enough), then this experiment will end early and you will earn a smaller payment. $$</p><p>[Press the space bar to begin the real experiment.]</p>","32","instructions","","","","","","","","","","","","","","","","","","","","","","","",""
"","html-slider-response","130","693381","0.0-2.0-0.0-0.0","6420.110000006389","<img src=""./static/img/fractal4.png"" width=""250"" height=""250""","","BDM","","","","","","","0","","","","52","","3","30.960220699840214","","","","","","","","","",""
"","html-keyboard-response","131","701416","0.0-2.0-1.0-0.0","8031.704999972135","<p style='font-size':25px> You want <strong> 3.08 </strong> points. </p> <p> The computer offers <strong>4.28</strong> points. </p><p> You will be given 4.28 points if you achieve at least 80% accuracy on this task. </p><img src=""./static/img/fractal4.png"" width=""250"" height=""250"" location='center'></img><p>[Press the space bar to continue.]</p>","32","","","","","","","","","","","","","","","","","","","","","","","","",""
"","html-keyboard-response","132","701526","0.0-2.0-2.0-0.0","null","+","null","","","","","","","","","","","","","","","","","","","","","","","","",""
"","html-keyboard-response","133","709517","0.0-2.0-2.0-1.0-0.0","7989.070000010543","<p>In this task, you will need to follow different rules depending on the color of the numbers on screen.</p><p style=""color: blue"">If the number is blue, you will need to respond to its magnitude (less than or greater than 5?).</p><p style=""color: red"">If the number is red, you will need to respond to its parity (even or odd?).</p><p> As a reminder, the response keys are: </p><p><strong> S   F   H   K </strong></p><p>Please place your fingers on the response keys now.</p><p>Press any button to begin.</p>","32","instructions","","","","","","","","","","","","","","","","","","","","","","","",""
"","categorize-html","134","710645","0.0-2.0-2.0-2.0-0.0","1124.8350000241771","<p style=""color: blue"" >8</p>","70","n-switch","true","true","1","6","0.9","70","0","false","","","","","","","","","","","","","","","",""
"","html-keyboard-response","135","711026","0.0-2.0-2.0-2.0-1.0","null","<p style=""color: black"">8</p>","null","feedback","","","","","","","","","","","","","","","","","","","","","","","",""
"","html-keyboard-response","136","711343","0.0-2.0-2.0-2.0-2.0","null"," ","null","ITI","","","","","","","","","","","","","","","","","","","","","","","",""
"","categorize-html","137","712371","0.0-2.0-2.0-2.0-3.0","1024.9100000364706","<p style=""color: red"" >4</p>","72","n-switch","true","true","2","3","0.9","72","0","false","","","","","","","","","","","","","","","",""
"","html-keyboard-response","138","712849","0.0-2.0-2.0-2.0-4.0","null","<p style=""color: black"">4</p>","null","feedback","","","","","","","","","","","","","","","","","","","","","","","",""
"","html-keyboard-response","139","713153","0.0-2.0-2.0-2.0-5.0","null"," ","null","ITI","","","","","","","","","","","","","","","","","","","","","","","",""
"","categorize-html","140","713729","0.0-2.0-2.0-2.0-6.0","571.8750000232831","<p style=""color: blue"" >2</p>","72","n-switch","false","true","1","1","0.9","83","0","false","","","","","","","","","","","","","","","",""
"","html-keyboard-response","141","714661","0.0-2.0-2.0-2.0-7.0","null","<p style=""color: black"">2</p>","null","feedback","","","","","","","","","","","","","","","","","","","","","","","",""
"","html-keyboard-response","142","714971","0.0-2.0-2.0-2.0-8.0","null"," ","null","ITI","","","","","","","","","","","","","","","","","","","","","","","",""
"","categorize-html","143","715980","0.0-2.0-2.0-2.0-9.0","1006.130000052508","<p style=""color: red"" >7</p>","75","n-switch","true","true","2","5","0.9","75","0","false","","","","","","","","","","","","","","","",""
"","html-keyboard-response","144","716480","0.0-2.0-2.0-2.0-10.0","null","<p style=""color: black"">7</p>","null","feedback","","","","","","","","","","","","","","","","","","","","","","","",""
"","html-keyboard-response","145","716784","0.0-2.0-2.0-2.0-11.0","null"," ","null","ITI","","","","","","","","","","","","","","","","","","","","","","","",""
"","categorize-html","146","717789","0.0-2.0-2.0-2.0-12.0","998.3549999888055","<p style=""color: red"" >1</p>","75","n-switch","true","false","2","0","0.9","75","0","false","","","","","","","","","","","","","","","",""
"","html-keyboard-response","147","718304","0.0-2.0-2.0-2.0-13.0","null","<p style=""color: black"">1</p>","null","feedback","","","","","","","","","","","","","","","","","","","","","","","",""
"","html-keyboard-response","148","718620","0.0-2.0-2.0-2.0-14.0","null"," ","null","ITI","","","","","","","","","","","","","","","","","","","","","","","",""
"","categorize-html","149","719476","0.0-2.0-2.0-2.0-15.0","852.660000033211","<p style=""color: blue"" >4</p>","70","n-switch","false","true","1","3","0.9","83","0","false","","","","","","","","","","","","","","","",""
"","html-keyboard-response","150","720139","0.0-2.0-2.0-2.0-16.0","null","<p style=""color: black"">4</p>","null","feedback","","","","","","","","","","","","","","","","","","","","","","","",""
"","html-keyboard-response","151","720454","0.0-2.0-2.0-2.0-17.0","null"," ","null","ITI","","","","","","","","","","","","","","","","","","","","","","","",""
"","categorize-html","152","721152","0.0-2.0-2.0-2.0-18.0","694.1699999733828","<p style=""color: red"" >9</p>","75","n-switch","true","true","2","7","0.9","75","0","false","","","","","","","","","","","","","","","",""
"","html-keyboard-response","153","721959","0.0-2.0-2.0-2.0-19.0","null","<p style=""color: black"">9</p>","null","feedback","","","","","","","","","","","","","","","","","","","","","","","",""
"","html-keyboard-response","154","722280","0.0-2.0-2.0-2.0-20.0","null"," ","null","ITI","","","","","","","","","","","","","","","","","","","","","","","",""
"","categorize-html","155","722950","0.0-2.0-2.0-2.0-21.0","667.1349999960512","<p style=""color: blue"" >4</p>","70","n-switch","false","true","1","3","0.9","83","0","false","","","","","","","","","","","","","","","",""
"","html-keyboard-response","156","723786","0.0-2.0-2.0-2.0-22.0","null","<p style=""color: black"">4</p>","null","feedback","","","","","","","","","","","","","","","","","","","","","","","",""
"","html-keyboard-response","157","724102","0.0-2.0-2.0-2.0-23.0","null"," ","null","ITI","","","","","","","","","","","","","","","","","","","","","","","",""
"","categorize-html","158","724677","0.0-2.0-2.0-2.0-24.0","572.0650000148453","<p style=""color: blue"" >8</p>","70","n-switch","true","false","1","6","0.9","70","0","false","","","","","","","","","","","","","","","",""
"","html-keyboard-response","159","725621","0.0-2.0-2.0-2.0-25.0","null","<p style=""color: black"">8</p>","null","feedback","","","","","","","","","","","","","","","","","","","","","","","",""
"","html-keyboard-response","160","725927","0.0-2.0-2.0-2.0-26.0","null"," ","null","ITI","","","","","","","","","","","","","","","","","","","","","","","",""
"","categorize-html","161","726732","0.0-2.0-2.0-2.0-27.0","802.4549999972805","<p style=""color: red"" >4</p>","72","n-switch","true","true","2","3","0.9","72","0","false","","","","","","","","","","","","","","","",""
"","html-keyboard-response","162","727446","0.0-2.0-2.0-2.0-28.0","null","<p style=""color: black"">4</p>","null","feedback","","","","","","","","","","","","","","","","","","","","","","","",""
"","html-keyboard-response","163","727765","0.0-2.0-2.0-2.0-29.0","null"," ","null","ITI","","","","","","","","","","","","","","","","","","","","","","","",""
"","categorize-html","164","728405","0.0-2.0-2.0-2.0-30.0","636.884999985341","<p style=""color: blue"" >1</p>","83","n-switch","true","true","1","0","0.9","83","0","false","","","","","","","","","","","","","","","",""
"","html-keyboard-response","165","729276","0.0-2.0-2.0-2.0-31.0","null","<p style=""color: black"">1</p>","null","feedback","","","","","","","","","","","","","","","","","","","","","","","",""
"","html-keyboard-response","166","729582","0.0-2.0-2.0-2.0-32.0","null"," ","null","ITI","","","","","","","","","","","","","","","","","","","","","","","",""
"","categorize-html","167","730449","0.0-2.0-2.0-2.0-33.0","863.3799999952316","<p style=""color: red"" >6</p>","72","n-switch","true","true","2","4","0.9","72","0","false","","","","","","","","","","","","","","","",""
"","html-keyboard-response","168","731101","0.0-2.0-2.0-2.0-34.0","null","<p style=""color: black"">6</p>","null","feedback","","","","","","","","","","","","","","","","","","","","","","","",""
"","html-keyboard-response","169","731418","0.0-2.0-2.0-2.0-35.0","null"," ","null","ITI","","","","","","","","","","","","","","","","","","","","","","","",""
"","categorize-html","170","732520","0.0-2.0-2.0-2.0-36.0","1097.684999986086","<p style=""color: blue"" >8</p>","70","n-switch","true","true","1","6","0.9","70","0","false","","","","","","","","","","","","","","","",""
"","html-keyboard-response","171","732939","0.0-2.0-2.0-2.0-37.0","null","<p style=""color: black"">8</p>","null","feedback","","","","","","","","","","","","","","","","","","","","","","","",""
"","html-keyboard-response","172","733254","0.0-2.0-2.0-2.0-38.0","null"," ","null","ITI","","","","","","","","","","","","","","","","","","","","","","","",""
"","categorize-html","173","734064","0.0-2.0-2.0-2.0-39.0","807.1650000056252","<p style=""color: red"" >6</p>","72","n-switch","true","true","2","4","0.9","72","0","false","","","","","","","","","","","","","","","",""
"","html-keyboard-response","174","734759","0.0-2.0-2.0-2.0-40.0","null","<p style=""color: black"">6</p>","null","feedback","","","","","","","","","","","","","","","","","","","","","","","",""
"","html-keyboard-response","175","735075","0.0-2.0-2.0-2.0-41.0","null"," ","null","ITI","","","","","","","","","","","","","","","","","","","","","","","",""
"","categorize-html","176","736057","0.0-2.0-2.0-2.0-42.0","978.865000011865","<p style=""color: blue"" >4</p>","83","n-switch","true","true","1","3","0.9","83","0","false","","","","","","","","","","","","","","","",""
"","html-keyboard-response","177","736586","0.0-2.0-2.0-2.0-43.0","null","<p style=""color: black"">4</p>","null","feedback","","","","","","","","","","","","","","","","","","","","","","","",""
"","html-keyboard-response","178","736890","0.0-2.0-2.0-2.0-44.0","null"," ","null","ITI","","","","","","","","","","","","","","","","","","","","","","","",""
"","html-keyboard-response","179","740038","0.0-2.0-2.0-3.0","3145.989999989979","<p>Great job! You earned 4.28 point(s) from this task.</p> </p><p>Press the space bar to continue. </p>","32","debrief","","","","","","","","","","","","","","","","","","","","","","","",""
"","html-slider-response","180","750073","0.0-2.0-4.0-0.0","10030.804999987595","<img src=""./static/img/fractal4.png"" width=""250"" height=""250""","","BDM","","","","","","","1","","","","52","","3","81.2829885198594","","","","","","","","","",""
"","html-keyboard-response","181","756509","0.0-2.0-5.0-0.0","6434.034999983851","<p style='font-size':25px> You want <strong> 3.08 </strong> points. </p> <p> The computer offers <strong>4.96</strong> points. </p><p> You will be given 4.96 points if you achieve at least 80% accuracy on this task. </p><img src=""./static/img/fractal4.png"" width=""250"" height=""250"" location='center'></img><p>[Press the space bar to continue.]</p>","32","","","","","","","","","","","","","","","","","","","","","","","","",""
"","html-keyboard-response","182","756612","0.0-2.0-6.0-0.0","null","+","null","","","","","","","","","","","","","","","","","","","","","","","","",""
"","html-keyboard-response","183","758719","0.0-2.0-6.0-1.0-0.0","2104.13500003051","<p>In this task, you will need to follow different rules depending on the color of the numbers on screen.</p><p style=""color: blue"">If the number is blue, you will need to respond to its magnitude (less than or greater than 5?).</p><p style=""color: red"">If the number is red, you will need to respond to its parity (even or odd?).</p><p> As a reminder, the response keys are: </p><p><strong> S   F   H   K </strong></p><p>Please place your fingers on the response keys now.</p><p>Press any button to begin.</p>","32","instructions","","","","","","","","","","","","","","","","","","","","","","","",""
"","categorize-html","184","759603","0.0-2.0-6.0-2.0-0.0","880.8250000001863","<p style=""color: blue"" >1</p>","83","n-switch","true","true","1","0","0.9","83","1","false","","","","","","","","","","","","","","","",""
"","html-keyboard-response","185","760229","0.0-2.0-6.0-2.0-1.0","null","<p style=""color: black"">1</p>","null","feedback","","","","","","","","","","","","","","","","","","","","","","","",""
"","html-keyboard-response","186","760532","0.0-2.0-6.0-2.0-2.0","null"," ","null","ITI","","","","","","","","","","","","","","","","","","","","","","","",""
"","categorize-html","187","761307","0.0-2.0-6.0-2.0-3.0","771.0249999654479","<p style=""color: red"" >1</p>","75","n-switch","true","true","2","0","0.9","75","1","false","","","","","","","","","","","","","","","",""
"","html-keyboard-response","188","762037","0.0-2.0-6.0-2.0-4.0","null","<p style=""color: black"">1</p>","null","feedback","","","","","","","","","","","","","","","","","","","","","","","",""
"","html-keyboard-response","189","762354","0.0-2.0-6.0-2.0-5.0","null"," ","null","ITI","","","","","","","","","","","","","","","","","","","","","","","",""
"","categorize-html","190","763141","0.0-2.0-6.0-2.0-6.0","783.8649999466725","<p style=""color: red"" >3</p>","75","n-switch","true","false","2","2","0.9","75","1","false","","","","","","","","","","","","","","","",""
"","html-keyboard-response","191","763870","0.0-2.0-6.0-2.0-7.0","null","<p style=""color: black"">3</p>","null","feedback","","","","","","","","","","","","","","","","","","","","","","","",""
"","html-keyboard-response","192","764175","0.0-2.0-6.0-2.0-8.0","null"," ","null","ITI","","","","","","","","","","","","","","","","","","","","","","","",""
"","categorize-html","193","764674","0.0-2.0-6.0-2.0-9.0","495.7900000154041","<p style=""color: blue"" >8</p>","70","n-switch","true","true","1","6","0.9","70","1","false","","","","","","","","","","","","","","","",""
"","html-keyboard-response","194","765690","0.0-2.0-6.0-2.0-10.0","null","<p style=""color: black"">8</p>","null","feedback","","","","","","","","","","","","","","","","","","","","","","","",""
"","html-keyboard-response","195","765998","0.0-2.0-6.0-2.0-11.0","null"," ","null","ITI","","","","","","","","","","","","","","","","","","","","","","","",""
"","categorize-html","196","766930","0.0-2.0-6.0-2.0-12.0","927.4250000016764","<p style=""color: blue"" >1</p>","72","n-switch","false","false","1","0","0.9","83","1","false","","","","","","","","","","","","","","","",""
"","html-keyboard-response","197","767518","0.0-2.0-6.0-2.0-13.0","113.58000000473112","<p style=""color: black"">1</p>","83","feedback","","","","","","","","","","","","","","","","","","","","","","","",""
"","html-keyboard-response","198","767838","0.0-2.0-6.0-2.0-14.0","null"," ","null","ITI","","","","","","","","","","","","","","","","","","","","","","","",""
"","categorize-html","199","768538","0.0-2.0-6.0-2.0-15.0","697.150000021793","<p style=""color: blue"" >4</p>","83","n-switch","true","false","1","3","0.9","83","1","false","","","","","","","","","","","","","","","",""
"","html-keyboard-response","200","769345","0.0-2.0-6.0-2.0-16.0","null","<p style=""color: black"">4</p>","null","feedback","","","","","","","","","","","","","","","","","","","","","","","",""
"","html-keyboard-response","201","769661","0.0-2.0-6.0-2.0-17.0","null"," ","null","ITI","","","","","","","","","","","","","","","","","","","","","","","",""
"","categorize-html","202","770452","0.0-2.0-6.0-2.0-18.0","784.8100000410341","<p style=""color: red"" >9</p>","75","n-switch","true","true","2","7","0.9","75","1","false","","","","","","","","","","","","","","","",""
"","html-keyboard-response","203","771183","0.0-2.0-6.0-2.0-19.0","null","<p style=""color: black"">9</p>","null","feedback","","","","","","","","","","","","","","","","","","","","","","","",""
"","html-keyboard-response","204","771498","0.0-2.0-6.0-2.0-20.0","null"," ","null","ITI","","","","","","","","","","","","","","","","","","","","","","","",""
"","categorize-html","205","772146","0.0-2.0-6.0-2.0-21.0","644.3849999923259","<p style=""color: blue"" >7</p>","70","n-switch","true","true","1","5","0.9","70","1","false","","","","","","","","","","","","","","","",""
"","html-keyboard-response","206","773005","0.0-2.0-6.0-2.0-22.0","null","<p style=""color: black"">7</p>","null","feedback","","","","","","","","","","","","","","","","","","","","","","","",""
"","html-keyboard-response","207","773323","0.0-2.0-6.0-2.0-23.0","null"," ","null","ITI","","","","","","","","","","","","","","","","","","","","","","","",""
"","categorize-html","208","773972","0.0-2.0-6.0-2.0-24.0","645.5550000537187","<p style=""color: red"" >8</p>","72","n-switch","true","true","2","6","0.9","72","1","false","","","","","","","","","","","","","","","",""
"","html-keyboard-response","209","774830","0.0-2.0-6.0-2.0-25.0","null","<p style=""color: black"">8</p>","null","feedback","","","","","","","","","","","","","","","","","","","","","","","",""
"","html-keyboard-response","210","775135","0.0-2.0-6.0-2.0-26.0","null"," ","null","ITI","","","","","","","","","","","","","","","","","","","","","","","",""
"","categorize-html","211","775740","0.0-2.0-6.0-2.0-27.0","600.6349999806844","<p style=""color: blue"" >9</p>","70","n-switch","true","true","1","7","0.9","70","1","false","","","","","","","","","","","","","","","",""
"","html-keyboard-response","212","776645","0.0-2.0-6.0-2.0-28.0","null","<p style=""color: black"">9</p>","null","feedback","","","","","","","","","","","","","","","","","","","","","","","",""
"","html-keyboard-response","213","776959","0.0-2.0-6.0-2.0-29.0","null"," ","null","ITI","","","","","","","","","","","","","","","","","","","","","","","",""
"","categorize-html","214","777740","0.0-2.0-6.0-2.0-30.0","777.4999999674037","<p style=""color: red"" >8</p>","75","n-switch","false","true","2","6","0.9","72","1","false","","","","","","","","","","","","","","","",""
"","html-keyboard-response","215","778466","0.0-2.0-6.0-2.0-31.0","null","<p style=""color: black"">8</p>","null","feedback","","","","","","","","","","","","","","","","","","","","","","","",""
"","html-keyboard-response","216","778786","0.0-2.0-6.0-2.0-32.0","null"," ","null","ITI","","","","","","","","","","","","","","","","","","","","","","","",""
"","categorize-html","217","779417","0.0-2.0-6.0-2.0-33.0","626.7999999690801","<p style=""color: blue"" >9</p>","70","n-switch","true","true","1","7","0.9","70","1","false","","","","","","","","","","","","","","","",""
"","html-keyboard-response","218","780292","0.0-2.0-6.0-2.0-34.0","null","<p style=""color: black"">9</p>","null","feedback","","","","","","","","","","","","","","","","","","","","","","","",""
"","html-keyboard-response","219","780609","0.0-2.0-6.0-2.0-35.0","null"," ","null","ITI","","","","","","","","","","","","","","","","","","","","","","","",""
"","categorize-html","220","781343","0.0-2.0-6.0-2.0-36.0","730.1699999952689","<p style=""color: red"" >1</p>","72","n-switch","false","true","2","0","0.9","75","1","false","","","","","","","","","","","","","","","",""
"","html-keyboard-response","221","782115","0.0-2.0-6.0-2.0-37.0","null","<p style=""color: black"">1</p>","null","feedback","","","","","","","","","","","","","","","","","","","","","","","",""
"","html-keyboard-response","222","782432","0.0-2.0-6.0-2.0-38.0","null"," ","null","ITI","","","","","","","","","","","","","","","","","","","","","","","",""
"","categorize-html","223","783044","0.0-2.0-6.0-2.0-39.0","608.4649999975227","<p style=""color: blue"" >1</p>","83","n-switch","true","true","1","0","0.9","83","1","false","","","","","","","","","","","","","","","",""
"","html-keyboard-response","224","783939","0.0-2.0-6.0-2.0-40.0","null","<p style=""color: black"">1</p>","null","feedback","","","","","","","","","","","","","","","","","","","","","","","",""
"","html-keyboard-response","225","784248","0.0-2.0-6.0-2.0-41.0","null"," ","null","ITI","","","","","","","","","","","","","","","","","","","","","","","",""
"","categorize-html","226","785136","0.0-2.0-6.0-2.0-42.0","884.5199999632314","<p style=""color: red"" >7</p>","75","n-switch","true","true","2","5","0.9","75","1","false","","","","","","","","","","","","","","","",""
"","html-keyboard-response","227","785754","0.0-2.0-6.0-2.0-43.0","null","<p style=""color: black"">7</p>","null","feedback","","","","","","","","","","","","","","","","","","","","","","","",""
"","html-keyboard-response","228","786064","0.0-2.0-6.0-2.0-44.0","null"," ","null","ITI","","","","","","","","","","","","","","","","","","","","","","","",""
"","html-keyboard-response","229","788848","0.0-2.0-6.0-3.0","2781.955000013113","<p>Great job! You earned 4.96 point(s) from this task.</p> </p><p>Press the space bar to continue. </p>","32","debrief","","","","","","","","","","","","","","","","","","","","","","","",""
"","html-slider-response","230","812318","0.0-2.0-8.0-0.0","23465.705000038724","<img src=""./static/img/fractal4.png"" width=""250"" height=""250""","","BDM","","","","","","","2","","","","56","","3","7.228797111277485","","","","","","","","","",""
"","html-keyboard-response","231","816792","0.0-2.0-9.0-0.0","4471.2949999957345","<p style='font-size':25px> You want <strong> 3.24 </strong> points. </p> <p> The computer offers <strong>2.88</strong> points. </p><p> You will do the following task instead to earn 1 point. </p> <img src=""./static/img/fractal5.jpg"" width=""250"" height=""250"" location='center'></img><p>[Press the space bar to continue.]</p>","32","","","","","","","","","","","","","","","","","","","","","","","","",""
"","html-keyboard-response","232","816910","0.0-2.0-11.0-0.0","null","+","null","","","","","","","","","","","","","","","","","","","","","","","","",""
"","html-keyboard-response","233","822573","0.0-2.0-11.0-1.0-0.0","5660.774999996647","<p>In this task, you will need to follow different rules depending on the color of the numbers on screen.</p><p style=""color: blue"">If the number is blue, you will need to respond to its magnitude (less than or greater than 5?).</p><p style=""color: red"">If the number is red, you will need to respond to its parity (even or odd?).</p><p> As a reminder, the response keys are: </p><p><strong> S   F   H   K </strong></p><p>Please place your fingers on the response keys now.</p><p>Press any button to begin.</p>","32","instructions","","","","","","","","","","","","","","","","","","","","","","","",""
"","categorize-html","234","823822","0.0-2.0-11.0-2.0-0.0","1246.21000001207","<p style=""color: blue"" >8</p>","70","n-switch","true","false","1","6","0.1","70","2","false","","","","","","","","","","","","","","","",""
"","html-keyboard-response","235","824080","0.0-2.0-11.0-2.0-1.0","null","<p style=""color: black"">8</p>","null","feedback","","","","","","","","","","","","","","","","","","","","","","","",""
"","html-keyboard-response","236","824400","0.0-2.0-11.0-2.0-2.0","null"," ","null","ITI","","","","","","","","","","","","","","","","","","","","","","","",""
"","categorize-html","237","824917","0.0-2.0-11.0-2.0-3.0","513.5250000166707","<p style=""color: blue"" >8</p>","70","n-switch","true","false","1","6","0.1","70","2","false","","","","","","","","","","","","","","","",""
"","html-keyboard-response","238","825906","0.0-2.0-11.0-2.0-4.0","null","<p style=""color: black"">8</p>","null","feedback","","","","","","","","","","","","","","","","","","","","","","","",""
"","html-keyboard-response","239","826224","0.0-2.0-11.0-2.0-5.0","null"," ","null","ITI","","","","","","","","","","","","","","","","","","","","","","","",""
"","categorize-html","240","826655","0.0-2.0-11.0-2.0-6.0","427.31499997898936","<p style=""color: blue"" >8</p>","70","n-switch","true","false","1","6","0.1","70","2","false","","","","","","","","","","","","","","","",""
"","html-keyboard-response","241","827743","0.0-2.0-11.0-2.0-7.0","null","<p style=""color: black"">8</p>","null","feedback","","","","","","","","","","","","","","","","","","","","","","","",""
"","html-keyboard-response","242","828059","0.0-2.0-11.0-2.0-8.0","null"," ","null","ITI","","","","","","","","","","","","","","","","","","","","","","","",""
"","categorize-html","243","828565","0.0-2.0-11.0-2.0-9.0","503.19999997736886","<p style=""color: blue"" >7</p>","70","n-switch","true","false","1","5","0.1","70","2","false","","","","","","","","","","","","","","","",""
"","html-keyboard-response","244","829580","0.0-2.0-11.0-2.0-10.0","null","<p style=""color: black"">7</p>","null","feedback","","","","","","","","","","","","","","","","","","","","","","","",""
"","html-keyboard-response","245","829895","0.0-2.0-11.0-2.0-11.0","null"," ","null","ITI","","","","","","","","","","","","","","","","","","","","","","","",""
"","categorize-html","246","830277","0.0-2.0-11.0-2.0-12.0","378.63000005017966","<p style=""color: blue"" >7</p>","70","n-switch","true","false","1","5","0.1","70","2","false","","","","","","","","","","","","","","","",""
"","html-keyboard-response","247","831420","0.0-2.0-11.0-2.0-13.0","null","<p style=""color: black"">7</p>","null","feedback","","","","","","","","","","","","","","","","","","","","","","","",""
"","html-keyboard-response","248","831752","0.0-2.0-11.0-2.0-14.0","null"," ","null","ITI","","","","","","","","","","","","","","","","","","","","","","","",""
"","categorize-html","249","832276","0.0-2.0-11.0-2.0-15.0","521.0250000236556","<p style=""color: blue"" >3</p>","83","n-switch","true","false","1","2","0.1","83","2","false","","","","","","","","","","","","","","","",""
"","html-keyboard-response","250","833260","0.0-2.0-11.0-2.0-16.0","null","<p style=""color: black"">3</p>","null","feedback","","","","","","","","","","","","","","","","","","","","","","","",""
"","html-keyboard-response","251","833569","0.0-2.0-11.0-2.0-17.0","null"," ","null","ITI","","","","","","","","","","","","","","","","","","","","","","","",""
"","categorize-html","252","834080","0.0-2.0-11.0-2.0-18.0","507.5349999824539","<p style=""color: blue"" >7</p>","70","n-switch","true","false","1","5","0.1","70","2","false","","","","","","","","","","","","","","","",""
"","html-keyboard-response","253","835080","0.0-2.0-11.0-2.0-19.0","null","<p style=""color: black"">7</p>","null","feedback","","","","","","","","","","","","","","","","","","","","","","","",""
"","html-keyboard-response","254","835389","0.0-2.0-11.0-2.0-20.0","null"," ","null","ITI","","","","","","","","","","","","","","","","","","","","","","","",""
"","categorize-html","255","835838","0.0-2.0-11.0-2.0-21.0","446.15500001236796","<p style=""color: blue"" >4</p>","83","n-switch","true","false","1","3","0.1","83","2","false","","","","","","","","","","","","","","","",""
"","html-keyboard-response","256","836903","0.0-2.0-11.0-2.0-22.0","null","<p style=""color: black"">4</p>","null","feedback","","","","","","","","","","","","","","","","","","","","","","","",""
"","html-keyboard-response","257","837214","0.0-2.0-11.0-2.0-23.0","null"," ","null","ITI","","","","","","","","","","","","","","","","","","","","","","","",""
"","categorize-html","258","837723","0.0-2.0-11.0-2.0-24.0","505.56999997934327","<p style=""color: blue"" >2</p>","83","n-switch","true","false","1","1","0.1","83","2","false","","","","","","","","","","","","","","","",""
"","html-keyboard-response","259","838724","0.0-2.0-11.0-2.0-25.0","null","<p style=""color: black"">2</p>","null","feedback","","","","","","","","","","","","","","","","","","","","","","","",""
"","html-keyboard-response","260","839027","0.0-2.0-11.0-2.0-26.0","null"," ","null","ITI","","","","","","","","","","","","","","","","","","","","","","","",""
"","categorize-html","261","839811","0.0-2.0-11.0-2.0-27.0","780.4100000066683","<p style=""color: red"" >2</p>","72","n-switch","true","true","2","1","0.1","72","2","false","","","","","","","","","","","","","","","",""
"","html-keyboard-response","262","840553","0.0-2.0-11.0-2.0-28.0","null","<p style=""color: black"">2</p>","null","feedback","","","","","","","","","","","","","","","","","","","","","","","",""
"","html-keyboard-response","263","840869","0.0-2.0-11.0-2.0-29.0","null"," ","null","ITI","","","","","","","","","","","","","","","","","","","","","","","",""
"","categorize-html","264","841835","0.0-2.0-11.0-2.0-30.0","961.3249999820255","<p style=""color: red"" >3</p>","75","n-switch","true","false","2","2","0.1","75","2","false","","","","","","","","","","","","","","","",""
"","html-keyboard-response","265","842390","0.0-2.0-11.0-2.0-31.0","null","<p style=""color: black"">3</p>","null","feedback","","","","","","","","","","","","","","","","","","","","","","","",""
"","html-keyboard-response","266","842699","0.0-2.0-11.0-2.0-32.0","null"," ","null","ITI","","","","","","","","","","","","","","","","","","","","","","","",""
"","categorize-html","267","843173","0.0-2.0-11.0-2.0-33.0","471.22000000672415","<p style=""color: red"" >3</p>","75","n-switch","true","false","2","2","0.1","75","2","false","","","","","","","","","","","","","","","",""
"","html-keyboard-response","268","844213","0.0-2.0-11.0-2.0-34.0","null","<p style=""color: black"">3</p>","null","feedback","","","","","","","","","","","","","","","","","","","","","","","",""
"","html-keyboard-response","269","844518","0.0-2.0-11.0-2.0-35.0","null"," ","null","ITI","","","","","","","","","","","","","","","","","","","","","","","",""
"","categorize-html","270","845237","0.0-2.0-11.0-2.0-36.0","716.0400000284426","<p style=""color: red"" >6</p>","72","n-switch","true","false","2","4","0.1","72","2","false","","","","","","","","","","","","","","","",""
"","html-keyboard-response","271","846035","0.0-2.0-11.0-2.0-37.0","null","<p style=""color: black"">6</p>","null","feedback","","","","","","","","","","","","","","","","","","","","","","","",""
"","html-keyboard-response","272","846346","0.0-2.0-11.0-2.0-38.0","null"," ","null","ITI","","","","","","","","","","","","","","","","","","","","","","","",""
"","categorize-html","273","846856","0.0-2.0-11.0-2.0-39.0","506.41999999061227","<p style=""color: red"" >6</p>","72","n-switch","true","false","2","4","0.1","72","2","false","","","","","","","","","","","","","","","",""
"","html-keyboard-response","274","847860","0.0-2.0-11.0-2.0-40.0","null","<p style=""color: black"">6</p>","null","feedback","","","","","","","","","","","","","","","","","","","","","","","",""
"","html-keyboard-response","275","848177","0.0-2.0-11.0-2.0-41.0","null"," ","null","ITI","","","","","","","","","","","","","","","","","","","","","","","",""
"","categorize-html","276","848772","0.0-2.0-11.0-2.0-42.0","591.8950000195764","<p style=""color: red"" >3</p>","75","n-switch","true","false","2","2","0.1","75","2","false","","","","","","","","","","","","","","","",""
"","html-keyboard-response","277","849700","0.0-2.0-11.0-2.0-43.0","null","<p style=""color: black"">3</p>","null","feedback","","","","","","","","","","","","","","","","","","","","","","","",""
"","html-keyboard-response","278","850002","0.0-2.0-11.0-2.0-44.0","null"," ","null","ITI","","","","","","","","","","","","","","","","","","","","","","","",""
"","html-keyboard-response","279","851645","0.0-2.0-11.0-3.0","1640.0400000275113","<p>Great job! You earned 1 point(s) from this task.</p> </p><p>Press the space bar to continue. </p>","32","debrief","","","","","","","","","","","","","","","","","","","","","","","",""
"","html-slider-response","280","881655","0.0-2.0-12.0-0.0","null","<img src=""./static/img/fractal4.png"" width=""250"" height=""250""","","BDM","","","","","","","3","","","","null","","3","94.79165266168748","","","","","","","","","",""
"","html-keyboard-response","281","887114","0.0-2.0-13.0-0.0","5450.855000002775","<p> You did not respond in time. You will do the following task to earn 1 point. </p><img src=""./static/img/fractal5.jpg"" width=""250"" height=""250""location ='center'></img><p>[Press the space bar to continue.]</p>","32","","","","","","","","","","","","","","","","","","","","","","","","",""
"","html-keyboard-response","282","887228","0.0-2.0-15.0-0.0","null","+","null","","","","","","","","","","","","","","","","","","","","","","","","",""
"","html-keyboard-response","283","889209","0.0-2.0-15.0-1.0-0.0","1980.2999999956228","<p>In this task, you will need to follow different rules depending on the color of the numbers on screen.</p><p style=""color: blue"">If the number is blue, you will need to respond to its magnitude (less than or greater than 5?).</p><p style=""color: red"">If the number is red, you will need to respond to its parity (even or odd?).</p><p> As a reminder, the response keys are: </p><p><strong> S   F   H   K </strong></p><p>Please place your fingers on the response keys now.</p><p>Press any button to begin.</p>","32","instructions","","","","","","","","","","","","","","","","","","","","","","","",""
"","categorize-html","284","890164","0.0-2.0-15.0-2.0-0.0","950.7899999734946","<p style=""color: blue"" >2</p>","83","n-switch","true","false","1","1","0.1","83","3","false","","","","","","","","","","","","","","","",""
"","html-keyboard-response","285","890717","0.0-2.0-15.0-2.0-1.0","null","<p style=""color: black"">2</p>","null","feedback","","","","","","","","","","","","","","","","","","","","","","","",""
"","html-keyboard-response","286","891020","0.0-2.0-15.0-2.0-2.0","null"," ","null","ITI","","","","","","","","","","","","","","","","","","","","","","","",""
"","categorize-html","287","891438","0.0-2.0-15.0-2.0-3.0","414.10499997437","<p style=""color: blue"" >3</p>","83","n-switch","true","false","1","2","0.1","83","3","false","","","","","","","","","","","","","","","",""
"","html-keyboard-response","288","892535","0.0-2.0-15.0-2.0-4.0","null","<p style=""color: black"">3</p>","null","feedback","","","","","","","","","","","","","","","","","","","","","","","",""
"","html-keyboard-response","289","892837","0.0-2.0-15.0-2.0-5.0","null"," ","null","ITI","","","","","","","","","","","","","","","","","","","","","","","",""
"","categorize-html","290","893225","0.0-2.0-15.0-2.0-6.0","379.7049999702722","<p style=""color: blue"" >3</p>","83","n-switch","true","false","1","2","0.1","83","3","false","","","","","","","","","","","","","","","",""
"","html-keyboard-response","291","894346","0.0-2.0-15.0-2.0-7.0","null","<p style=""color: black"">3</p>","null","feedback","","","","","","","","","","","","","","","","","","","","","","","",""
"","html-keyboard-response","292","894650","0.0-2.0-15.0-2.0-8.0","null"," ","null","ITI","","","","","","","","","","","","","","","","","","","","","","","",""
"","categorize-html","293","895237","0.0-2.0-15.0-2.0-9.0","582.6249999809079","<p style=""color: blue"" >8</p>","70","n-switch","true","false","1","6","0.1","70","3","false","","","","","","","","","","","","","","","",""
"","html-keyboard-response","294","896166","0.0-2.0-15.0-2.0-10.0","null","<p style=""color: black"">8</p>","null","feedback","","","","","","","","","","","","","","","","","","","","","","","",""
"","html-keyboard-response","295","896468","0.0-2.0-15.0-2.0-11.0","null"," ","null","ITI","","","","","","","","","","","","","","","","","","","","","","","",""
"","categorize-html","296","896868","0.0-2.0-15.0-2.0-12.0","396.26000000862405","<p style=""color: blue"" >7</p>","70","n-switch","true","false","1","5","0.1","70","3","false","","","","","","","","","","","","","","","",""
"","html-keyboard-response","297","897986","0.0-2.0-15.0-2.0-13.0","null","<p style=""color: black"">7</p>","null","feedback","","","","","","","","","","","","","","","","","","","","","","","",""
"","html-keyboard-response","298","898301","0.0-2.0-15.0-2.0-14.0","null"," ","null","ITI","","","","","","","","","","","","","","","","","","","","","","","",""
"","categorize-html","299","898798","0.0-2.0-15.0-2.0-15.0","491.4449999923818","<p style=""color: blue"" >1</p>","83","n-switch","true","false","1","0","0.1","83","3","false","","","","","","","","","","","","","","","",""
"","html-keyboard-response","300","899817","0.0-2.0-15.0-2.0-16.0","null","<p style=""color: black"">1</p>","null","feedback","","","","","","","","","","","","","","","","","","","","","","","",""
"","html-keyboard-response","301","900125","0.0-2.0-15.0-2.0-17.0","null"," ","null","ITI","","","","","","","","","","","","","","","","","","","","","","","",""
"","categorize-html","302","900557","0.0-2.0-15.0-2.0-18.0","428.8100000121631","<p style=""color: blue"" >1</p>","83","n-switch","true","false","1","0","0.1","83","3","false","","","","","","","","","","","","","","","",""
"","html-keyboard-response","303","901642","0.0-2.0-15.0-2.0-19.0","null","<p style=""color: black"">1</p>","null","feedback","","","","","","","","","","","","","","","","","","","","","","","",""
"","html-keyboard-response","304","901957","0.0-2.0-15.0-2.0-20.0","null"," ","null","ITI","","","","","","","","","","","","","","","","","","","","","","","",""
"","categorize-html","305","902645","0.0-2.0-15.0-2.0-21.0","684.4600000185892","<p style=""color: blue"" >7</p>","70","n-switch","true","false","1","5","0.1","70","3","false","","","","","","","","","","","","","","","",""
"","html-keyboard-response","306","903480","0.0-2.0-15.0-2.0-22.0","null","<p style=""color: black"">7</p>","null","feedback","","","","","","","","","","","","","","","","","","","","","","","",""
"","html-keyboard-response","307","903800","0.0-2.0-15.0-2.0-23.0","null"," ","null","ITI","","","","","","","","","","","","","","","","","","","","","","","",""
"","categorize-html","308","904229","0.0-2.0-15.0-2.0-24.0","424.6500000008382","<p style=""color: blue"" >1</p>","83","n-switch","true","false","1","0","0.1","83","3","false","","","","","","","","","","","","","","","",""
"","html-keyboard-response","309","905307","0.0-2.0-15.0-2.0-25.0","null","<p style=""color: black"">1</p>","null","feedback","","","","","","","","","","","","","","","","","","","","","","","",""
"","html-keyboard-response","310","905609","0.0-2.0-15.0-2.0-26.0","null"," ","null","ITI","","","","","","","","","","","","","","","","","","","","","","","",""
"","categorize-html","311","906179","0.0-2.0-15.0-2.0-27.0","564.8400000063702","<p style=""color: blue"" >9</p>","70","n-switch","true","false","1","7","0.1","70","3","false","","","","","","","","","","","","","","","",""
"","html-keyboard-response","312","907122","0.0-2.0-15.0-2.0-28.0","null","<p style=""color: black"">9</p>","null","feedback","","","","","","","","","","","","","","","","","","","","","","","",""
"","html-keyboard-response","313","907434","0.0-2.0-15.0-2.0-29.0","null"," ","null","ITI","","","","","","","","","","","","","","","","","","","","","","","",""
"","categorize-html","314","907891","0.0-2.0-15.0-2.0-30.0","453.1899999710731","<p style=""color: blue"" >1</p>","83","n-switch","true","false","1","0","0.1","83","3","false","","","","","","","","","","","","","","","",""
"","html-keyboard-response","315","908942","0.0-2.0-15.0-2.0-31.0","null","<p style=""color: black"">1</p>","null","feedback","","","","","","","","","","","","","","","","","","","","","","","",""
"","html-keyboard-response","316","909246","0.0-2.0-15.0-2.0-32.0","null"," ","null","ITI","","","","","","","","","","","","","","","","","","","","","","","",""
"","categorize-html","317","909920","0.0-2.0-15.0-2.0-33.0","665.9549999749288","<p style=""color: blue"" >6</p>","70","n-switch","true","false","1","4","0.1","70","3","false","","","","","","","","","","","","","","","",""
"","html-keyboard-response","318","910766","0.0-2.0-15.0-2.0-34.0","null","<p style=""color: black"">6</p>","null","feedback","","","","","","","","","","","","","","","","","","","","","","","",""
"","html-keyboard-response","319","911072","0.0-2.0-15.0-2.0-35.0","null"," ","null","ITI","","","","","","","","","","","","","","","","","","","","","","","",""
"","categorize-html","320","911654","0.0-2.0-15.0-2.0-36.0","576.8699999898672","<p style=""color: blue"" >8</p>","70","n-switch","true","false","1","6","0.1","70","3","false","","","","","","","","","","","","","","","",""
"","html-keyboard-response","321","912584","0.0-2.0-15.0-2.0-37.0","null","<p style=""color: black"">8</p>","null","feedback","","","","","","","","","","","","","","","","","","","","","","","",""
"","html-keyboard-response","322","912886","0.0-2.0-15.0-2.0-38.0","null"," ","null","ITI","","","","","","","","","","","","","","","","","","","","","","","",""
"","categorize-html","323","913327","0.0-2.0-15.0-2.0-39.0","431.685000017751","<p style=""color: blue"" >3</p>","83","n-switch","true","false","1","2","0.1","83","3","false","","","","","","","","","","","","","","","",""
"","html-keyboard-response","324","914410","0.0-2.0-15.0-2.0-40.0","null","<p style=""color: black"">3</p>","null","feedback","","","","","","","","","","","","","","","","","","","","","","","",""
"","html-keyboard-response","325","914717","0.0-2.0-15.0-2.0-41.0","null"," ","null","ITI","","","","","","","","","","","","","","","","","","","","","","","",""
"","categorize-html","326","915177","0.0-2.0-15.0-2.0-42.0","453.6599999992177","<p style=""color: blue"" >2</p>","83","n-switch","true","false","1","1","0.1","83","3","false","","","","","","","","","","","","","","","",""
"","html-keyboard-response","327","916231","0.0-2.0-15.0-2.0-43.0","null","<p style=""color: black"">2</p>","null","feedback","","","","","","","","","","","","","","","","","","","","","","","",""
"","html-keyboard-response","328","916544","0.0-2.0-15.0-2.0-44.0","null"," ","null","ITI","","","","","","","","","","","","","","","","","","","","","","","",""
"","html-keyboard-response","329","917364","0.0-2.0-15.0-3.0","819.3150000297464","<p>Great job! You earned 1 point(s) from this task.</p> </p><p>Press the space bar to continue. </p>","32","debrief","","","","","","","","","","","","","","","","","","","","","","","",""
"","html-slider-response","330","927281","0.0-2.0-16.0-0.0","9915.57999997167","<img src=""./static/img/fractal4.png"" width=""250"" height=""250""","","BDM","","","","","","","4","","","","64","","3","60.3730545349685","","","","","","","","","",""
"","html-keyboard-response","331","932050","0.0-2.0-17.0-0.0","4767.7200000034645","<p style='font-size':25px> You want <strong> 3.56 </strong> points. </p> <p> The computer offers <strong>4.96</strong> points. </p><p> You will be given 4.96 points if you achieve at least 80% accuracy on this task. </p><img src=""./static/img/fractal4.png"" width=""250"" height=""250"" location='center'></img><p>[Press the space bar to continue.]</p>","32","","","","","","","","","","","","","","","","","","","","","","","","",""
"","html-keyboard-response","332","932163","0.0-2.0-18.0-0.0","null","+","null","","","","","","","","","","","","","","","","","","","","","","","","",""
"","html-keyboard-response","333","936945","0.0-2.0-18.0-1.0-0.0","4780.954999965616","<p>In this task, you will need to follow different rules depending on the color of the numbers on screen.</p><p style=""color: blue"">If the number is blue, you will need to respond to its magnitude (less than or greater than 5?).</p><p style=""color: red"">If the number is red, you will need to respond to its parity (even or odd?).</p><p> As a reminder, the response keys are: </p><p><strong> S   F   H   K </strong></p><p>Please place your fingers on the response keys now.</p><p>Press any button to begin.</p>","32","instructions","","","","","","","","","","","","","","","","","","","","","","","",""
"","categorize-html","334","937890","0.0-2.0-18.0-2.0-0.0","936.3649999722838","<p style=""color: blue"" >3</p>","83","n-switch","true","true","1","2","0.9","83","4","false","","","","","","","","","","","","","","","",""
"","html-keyboard-response","335","938456","0.0-2.0-18.0-2.0-1.0","null","<p style=""color: black"">3</p>","null","feedback","","","","","","","","","","","","","","","","","","","","","","","",""
"","html-keyboard-response","336","938774","0.0-2.0-18.0-2.0-2.0","null"," ","null","ITI","","","","","","","","","","","","","","","","","","","","","","","",""
"","categorize-html","337","939626","0.0-2.0-18.0-2.0-3.0","844.0800000098534","<p style=""color: red"" >3</p>","75","n-switch","true","true","2","2","0.9","75","4","false","","","","","","","","","","","","","","","",""
"","html-keyboard-response","338","940292","0.0-2.0-18.0-2.0-4.0","null","<p style=""color: black"">3</p>","null","feedback","","","","","","","","","","","","","","","","","","","","","","","",""
"","html-keyboard-response","339","940609","0.0-2.0-18.0-2.0-5.0","null"," ","null","ITI","","","","","","","","","","","","","","","","","","","","","","","",""
"","categorize-html","340","941221","0.0-2.0-18.0-2.0-6.0","608.2649999880232","<p style=""color: red"" >6</p>","72","n-switch","true","false","2","4","0.9","72","4","false","","","","","","","","","","","","","","","",""
"","html-keyboard-response","341","942116","0.0-2.0-18.0-2.0-7.0","null","<p style=""color: black"">6</p>","null","feedback","","","","","","","","","","","","","","","","","","","","","","","",""
"","html-keyboard-response","342","942431","0.0-2.0-18.0-2.0-8.0","null"," ","null","ITI","","","","","","","","","","","","","","","","","","","","","","","",""
"","categorize-html","343","943133","0.0-2.0-18.0-2.0-9.0","696.7750000185333","<p style=""color: blue"" >7</p>","70","n-switch","true","true","1","5","0.9","70","4","false","","","","","","","","","","","","","","","",""
"","html-keyboard-response","344","943950","0.0-2.0-18.0-2.0-10.0","null","<p style=""color: black"">7</p>","null","feedback","","","","","","","","","","","","","","","","","","","","","","","",""
"","html-keyboard-response","345","944255","0.0-2.0-18.0-2.0-11.0","null"," ","null","ITI","","","","","","","","","","","","","","","","","","","","","","","",""
"","categorize-html","346","945265","0.0-2.0-18.0-2.0-12.0","1006.5649999887682","<p style=""color: red"" >9</p>","72","n-switch","false","true","2","7","0.9","75","4","false","","","","","","","","","","","","","","","",""
"","html-keyboard-response","347","945775","0.0-2.0-18.0-2.0-13.0","null","<p style=""color: black"">9</p>","null","feedback","","","","","","","","","","","","","","","","","","","","","","","",""
"","html-keyboard-response","348","946092","0.0-2.0-18.0-2.0-14.0","null"," ","null","ITI","","","","","","","","","","","","","","","","","","","","","","","",""
"","categorize-html","349","946816","0.0-2.0-18.0-2.0-15.0","720.050000003539","<p style=""color: blue"" >8</p>","70","n-switch","true","true","1","6","0.9","70","4","false","","","","","","","","","","","","","","","",""
"","html-keyboard-response","350","947616","0.0-2.0-18.0-2.0-16.0","null","<p style=""color: black"">8</p>","null","feedback","","","","","","","","","","","","","","","","","","","","","","","",""
"","html-keyboard-response","351","947929","0.0-2.0-18.0-2.0-17.0","null"," ","null","ITI","","","","","","","","","","","","","","","","","","","","","","","",""
"","categorize-html","352","948652","0.0-2.0-18.0-2.0-18.0","718.2400000165217","<p style=""color: red"" >6</p>","72","n-switch","true","true","2","4","0.9","72","4","false","","","","","","","","","","","","","","","",""
"","html-keyboard-response","353","949435","0.0-2.0-18.0-2.0-19.0","null","<p style=""color: black"">6</p>","null","feedback","","","","","","","","","","","","","","","","","","","","","","","",""
"","html-keyboard-response","354","949747","0.0-2.0-18.0-2.0-20.0","null"," ","null","ITI","","","","","","","","","","","","","","","","","","","","","","","",""
"","categorize-html","355","950531","0.0-2.0-18.0-2.0-21.0","777.2300000069663","<p style=""color: blue"" >4</p>","83","n-switch","true","true","1","3","0.9","83","4","false","","","","","","","","","","","","","","","",""
"","html-keyboard-response","356","951270","0.0-2.0-18.0-2.0-22.0","null","<p style=""color: black"">4</p>","null","feedback","","","","","","","","","","","","","","","","","","","","","","","",""
"","html-keyboard-response","357","951592","0.0-2.0-18.0-2.0-23.0","null"," ","null","ITI","","","","","","","","","","","","","","","","","","","","","","","",""
"","categorize-html","358","952310","0.0-2.0-18.0-2.0-24.0","714.0200000139885","<p style=""color: red"" >6</p>","72","n-switch","true","true","2","4","0.9","72","4","false","","","","","","","","","","","","","","","",""
"","html-keyboard-response","359","953112","0.0-2.0-18.0-2.0-25.0","null","<p style=""color: black"">6</p>","null","feedback","","","","","","","","","","","","","","","","","","","","","","","",""
"","html-keyboard-response","360","953427","0.0-2.0-18.0-2.0-26.0","null"," ","null","ITI","","","","","","","","","","","","","","","","","","","","","","","",""
"","categorize-html","361","954029","0.0-2.0-18.0-2.0-27.0","597.3600000143051","<p style=""color: blue"" >3</p>","83","n-switch","true","true","1","2","0.9","83","4","false","","","","","","","","","","","","","","","",""
"","html-keyboard-response","362","954946","0.0-2.0-18.0-2.0-28.0","null","<p style=""color: black"">3</p>","null","feedback","","","","","","","","","","","","","","","","","","","","","","","",""
"","html-keyboard-response","363","955262","0.0-2.0-18.0-2.0-29.0","null"," ","null","ITI","","","","","","","","","","","","","","","","","","","","","","","",""
"","categorize-html","364","956085","0.0-2.0-18.0-2.0-30.0","818.9649999840185","<p style=""color: red"" >8</p>","72","n-switch","true","true","2","6","0.9","72","4","false","","","","","","","","","","","","","","","",""
"","html-keyboard-response","365","956782","0.0-2.0-18.0-2.0-31.0","null","<p style=""color: black"">8</p>","null","feedback","","","","","","","","","","","","","","","","","","","","","","","",""
"","html-keyboard-response","366","957100","0.0-2.0-18.0-2.0-32.0","null"," ","null","ITI","","","","","","","","","","","","","","","","","","","","","","","",""
"","categorize-html","367","957945","0.0-2.0-18.0-2.0-33.0","837.1899999910966","<p style=""color: blue"" >6</p>","70","n-switch","true","true","1","4","0.9","70","4","false","","","","","","","","","","","","","","","",""
"","html-keyboard-response","368","958621","0.0-2.0-18.0-2.0-34.0","null","<p style=""color: black"">6</p>","null","feedback","","","","","","","","","","","","","","","","","","","","","","","",""
"","html-keyboard-response","369","958936","0.0-2.0-18.0-2.0-35.0","null"," ","null","ITI","","","","","","","","","","","","","","","","","","","","","","","",""
"","categorize-html","370","960122","0.0-2.0-18.0-2.0-36.0","1181.734999991022","<p style=""color: red"" >9</p>","75","n-switch","true","true","2","7","0.9","75","4","false","","","","","","","","","","","","","","","",""
"","html-keyboard-response","371","960452","0.0-2.0-18.0-2.0-37.0","null","<p style=""color: black"">9</p>","null","feedback","","","","","","","","","","","","","","","","","","","","","","","",""
"","html-keyboard-response","372","960770","0.0-2.0-18.0-2.0-38.0","null"," ","null","ITI","","","","","","","","","","","","","","","","","","","","","","","",""
"","categorize-html","373","961587","0.0-2.0-18.0-2.0-39.0","808.6800000164658","<p style=""color: blue"" >6</p>","70","n-switch","true","true","1","4","0.9","70","4","false","","","","","","","","","","","","","","","",""
"","html-keyboard-response","374","962291","0.0-2.0-18.0-2.0-40.0","null","<p style=""color: black"">6</p>","null","feedback","","","","","","","","","","","","","","","","","","","","","","","",""
"","html-keyboard-response","375","962609","0.0-2.0-18.0-2.0-41.0","null"," ","null","ITI","","","","","","","","","","","","","","","","","","","","","","","",""
"","categorize-html","376","963565","0.0-2.0-18.0-2.0-42.0","947.7749999496154","<p style=""color: red"" >9</p>","75","n-switch","true","true","2","7","0.9","75","4","false","","","","","","","","","","","","","","","",""
"","html-keyboard-response","377","964131","0.0-2.0-18.0-2.0-43.0","null","<p style=""color: black"">9</p>","null","feedback","","","","","","","","","","","","","","","","","","","","","","","",""
"","html-keyboard-response","378","964448","0.0-2.0-18.0-2.0-44.0","null"," ","null","ITI","","","","","","","","","","","","","","","","","","","","","","","",""
"","html-keyboard-response","379","966185","0.0-2.0-18.0-3.0","1732.1600000141189","<p>Great job! You earned 4.96 point(s) from this task.</p> </p><p>Press the space bar to continue. </p>","32","debrief","","","","","","","","","","","","","","","","","","","","","","","",""
"","html-slider-response","380","976852","0.0-2.0-20.0-0.0","10661.904999986291","<img src=""./static/img/fractal4.png"" width=""250"" height=""250""","","BDM","","","","","","","5","","","","72","","3","66.34416757775111","","","","","","","","","",""
"","html-keyboard-response","381","984452","0.0-2.0-21.0-0.0","7598.170000012033","<p style='font-size':25px> You want <strong> 3.88 </strong> points. </p> <p> The computer offers <strong>4.56</strong> points. </p><p> You will be given 4.56 points if you achieve at least 80% accuracy on this task. </p><img src=""./static/img/fractal4.png"" width=""250"" height=""250"" location='center'></img><p>[Press the space bar to continue.]</p>","32","","","","","","","","","","","","","","","","","","","","","","","","",""
"","html-keyboard-response","382","984559","0.0-2.0-22.0-0.0","null","+","null","","","","","","","","","","","","","","","","","","","","","","","","",""
"","html-keyboard-response","383","987702","0.0-2.0-22.0-1.0-0.0","3141.155000019353","<p>In this task, you will need to follow different rules depending on the color of the numbers on screen.</p><p style=""color: blue"">If the number is blue, you will need to respond to its magnitude (less than or greater than 5?).</p><p style=""color: red"">If the number is red, you will need to respond to its parity (even or odd?).</p><p> As a reminder, the response keys are: </p><p><strong> S   F   H   K </strong></p><p>Please place your fingers on the response keys now.</p><p>Press any button to begin.</p>","32","instructions","","","","","","","","","","","","","","","","","","","","","","","",""
"","categorize-html","384","988732","0.0-2.0-22.0-2.0-0.0","1023.0500000179745","<p style=""color: blue"" >8</p>","70","n-switch","true","false","1","6","0.9","70","5","false","","","","","","","","","","","","","","","",""
"","html-keyboard-response","385","989217","0.0-2.0-22.0-2.0-1.0","null","<p style=""color: black"">8</p>","null","feedback","","","","","","","","","","","","","","","","","","","","","","","",""
"","html-keyboard-response","386","989518","0.0-2.0-22.0-2.0-2.0","null"," ","null","ITI","","","","","","","","","","","","","","","","","","","","","","","",""
"","categorize-html","387","990320","0.0-2.0-22.0-2.0-3.0","798.2000000192784","<p style=""color: red"" >2</p>","72","n-switch","true","true","2","1","0.9","72","5","false","","","","","","","","","","","","","","","",""
"","html-keyboard-response","388","991037","0.0-2.0-22.0-2.0-4.0","null","<p style=""color: black"">2</p>","null","feedback","","","","","","","","","","","","","","","","","","","","","","","",""
"","html-keyboard-response","389","991349","0.0-2.0-22.0-2.0-5.0","null"," ","null","ITI","","","","","","","","","","","","","","","","","","","","","","","",""
"","categorize-html","390","991985","0.0-2.0-22.0-2.0-6.0","630.6949999998324","<p style=""color: blue"" >8</p>","70","n-switch","true","true","1","6","0.9","70","5","false","","","","","","","","","","","","","","","",""
"","html-keyboard-response","391","992876","0.0-2.0-22.0-2.0-7.0","null","<p style=""color: black"">8</p>","null","feedback","","","","","","","","","","","","","","","","","","","","","","","",""
"","html-keyboard-response","392","993193","0.0-2.0-22.0-2.0-8.0","null"," ","null","ITI","","","","","","","","","","","","","","","","","","","","","","","",""
"","categorize-html","393","993718","0.0-2.0-22.0-2.0-9.0","520.4450000310317","<p style=""color: blue"" >8</p>","70","n-switch","true","false","1","6","0.9","70","5","false","","","","","","","","","","","","","","","",""
"","html-keyboard-response","394","994709","0.0-2.0-22.0-2.0-10.0","null","<p style=""color: black"">8</p>","null","feedback","","","","","","","","","","","","","","","","","","","","","","","",""
"","html-keyboard-response","395","995027","0.0-2.0-22.0-2.0-11.0","null"," ","null","ITI","","","","","","","","","","","","","","","","","","","","","","","",""
"","categorize-html","396","995842","0.0-2.0-22.0-2.0-12.0","807.5149999931455","<p style=""color: red"" >3</p>","75","n-switch","true","true","2","2","0.9","75","5","false","","","","","","","","","","","","","","","",""
"","html-keyboard-response","397","996547","0.0-2.0-22.0-2.0-13.0","null","<p style=""color: black"">3</p>","null","feedback","","","","","","","","","","","","","","","","","","","","","","","",""
"","html-keyboard-response","398","996862","0.0-2.0-22.0-2.0-14.0","null"," ","null","ITI","","","","","","","","","","","","","","","","","","","","","","","",""
"","categorize-html","399","997604","0.0-2.0-22.0-2.0-15.0","734.2100000241771","<p style=""color: blue"" >3</p>","83","n-switch","true","true","1","2","0.9","83","5","false","","","","","","","","","","","","","","","",""
"","html-keyboard-response","400","998370","0.0-2.0-22.0-2.0-16.0","null","<p style=""color: black"">3</p>","null","feedback","","","","","","","","","","","","","","","","","","","","","","","",""
"","html-keyboard-response","401","998675","0.0-2.0-22.0-2.0-17.0","null"," ","null","ITI","","","","","","","","","","","","","","","","","","","","","","","",""
"","categorize-html","402","999330","0.0-2.0-22.0-2.0-18.0","646.85499999905","<p style=""color: red"" >4</p>","72","n-switch","true","true","2","3","0.9","72","5","false","","","","","","","","","","","","","","","",""
"","html-keyboard-response","403","1000195","0.0-2.0-22.0-2.0-19.0","null","<p style=""color: black"">4</p>","null","feedback","","","","","","","","","","","","","","","","","","","","","","","",""
"","html-keyboard-response","404","1000497","0.0-2.0-22.0-2.0-20.0","null"," ","null","ITI","","","","","","","","","","","","","","","","","","","","","","","",""
"","categorize-html","405","1001375","0.0-2.0-22.0-2.0-21.0","871.7499999911524","<p style=""color: blue"" >1</p>","83","n-switch","true","true","1","0","0.9","83","5","false","","","","","","","","","","","","","","","",""
"","html-keyboard-response","406","1002006","0.0-2.0-22.0-2.0-22.0","null","<p style=""color: black"">1</p>","null","feedback","","","","","","","","","","","","","","","","","","","","","","","",""
"","html-keyboard-response","407","1002319","0.0-2.0-22.0-2.0-23.0","null"," ","null","ITI","","","","","","","","","","","","","","","","","","","","","","","",""
"","categorize-html","408","1003199","0.0-2.0-22.0-2.0-24.0","875.8350000134669","<p style=""color: red"" >4</p>","72","n-switch","true","true","2","3","0.9","72","5","false","","","","","","","","","","","","","","","",""
"","html-keyboard-response","409","1003839","0.0-2.0-22.0-2.0-25.0","null","<p style=""color: black"">4</p>","null","feedback","","","","","","","","","","","","","","","","","","","","","","","",""
"","html-keyboard-response","410","1004156","0.0-2.0-22.0-2.0-26.0","null"," ","null","ITI","","","","","","","","","","","","","","","","","","","","","","","",""
"","categorize-html","411","1004901","0.0-2.0-22.0-2.0-27.0","738.6999999871477","<p style=""color: blue"" >7</p>","70","n-switch","true","true","1","5","0.9","70","5","false","","","","","","","","","","","","","","","",""
"","html-keyboard-response","412","1005665","0.0-2.0-22.0-2.0-28.0","null","<p style=""color: black"">7</p>","null","feedback","","","","","","","","","","","","","","","","","","","","","","","",""
"","html-keyboard-response","413","1005978","0.0-2.0-22.0-2.0-29.0","null"," ","null","ITI","","","","","","","","","","","","","","","","","","","","","","","",""
"","categorize-html","414","1006659","0.0-2.0-22.0-2.0-30.0","672.5250000017695","<p style=""color: red"" >8</p>","72","n-switch","true","true","2","6","0.9","72","5","false","","","","","","","","","","","","","","","",""
"","html-keyboard-response","415","1007493","0.0-2.0-22.0-2.0-31.0","null","<p style=""color: black"">8</p>","null","feedback","","","","","","","","","","","","","","","","","","","","","","","",""
"","html-keyboard-response","416","1007796","0.0-2.0-22.0-2.0-32.0","null"," ","null","ITI","","","","","","","","","","","","","","","","","","","","","","","",""
